timestamp_before,timestamp_after,accel_x,accel_y,accel_z,gyro_x,gyro_y,gryo_z
1489427922.9016110897,1489427922.9049301147, -1.3906, -0.0334,  0.1201, -4.5929, -0.7324, -4.1046
1489427922.9050629139,1489427922.9075000286, -1.3906, -0.0334,  0.1201, -4.5929, -0.7324, -4.1046
1489427922.9075798988,1489427922.9098539352, -1.1230, -0.0271,  0.1094, -4.5929, -0.7324, -4.1046
1489427922.9099259377,1489427922.9122149944, -1.1230, -0.0271,  0.1094, -5.1727,  0.1221, -3.5706
1489427922.9122889042,1489427922.9145679474, -1.1230, -0.0271,  0.1094, -5.1727,  0.1221, -3.5706
1489427922.9146409035,1489427922.9169220924, -1.1230, -0.0271,  0.1094, -5.1727,  0.1221, -3.5706
1489427922.9169940948,1489427922.9192759991, -1.1230, -0.0271,  0.1094, -5.1727,  0.1221, -3.5706
1489427922.9193480015,1489427922.9216330051, -1.1230, -0.0271,  0.1094, -5.1727,  0.1221, -3.5858
1489427922.9217059612,1489427922.9239859581, -1.1230, -0.0271,  0.1094, -4.8370, -0.3357, -3.5858
1489427922.9240579605,1489427922.9263288975, -1.1230, -0.0271,  0.1094, -4.8370, -0.3357, -3.5858
1489427922.9264008999,1489427922.9286770821, -1.1230, -0.0271,  0.0947, -4.8370, -0.3357, -3.5858
1489427922.9287469387,1489427922.9310429096, -1.1353, -0.0195,  0.0947, -4.8370, -0.3357, -3.5858
1489427922.9311139584,1489427922.9333970547, -1.1353, -0.0195,  0.0947, -4.6844, -0.6714, -3.5095
1489427922.9334681034,1489427922.9357619286, -1.1353, -0.0195,  0.0947, -4.6844, -0.6714, -3.5095
1489427922.9358320236,1489427922.9381139278, -1.1353, -0.0195,  0.0947, -4.6844, -0.6714, -3.5095
1489427922.9381849766,1489427922.9404680729, -1.1353, -0.0195,  0.0947, -4.6844, -0.6714, -3.5095
1489427922.9405388832,1489427922.9428939819, -1.1353, -0.0195,  0.0947, -4.6844, -0.6714, -3.9215
1489427922.9429640770,1489427922.9452440739, -1.1353, -0.0195,  0.0947, -4.6997, -0.3204, -3.9215
1489427922.9453148842,1489427922.9475960732, -1.1353, -0.0195,  0.0947, -4.6997, -0.3204, -3.9215
1489427922.9476668835,1489427922.9499580860, -1.1233, -0.0342,  0.1050, -4.6997, -0.3204, -3.9215
1489427922.9500288963,1489427922.9525051117, -1.1233, -0.0342,  0.1050, -4.6997, -0.3204, -3.9215
1489427922.9525759220,1489427922.9548718929, -1.1233, -0.0342,  0.1050, -4.7150, -0.5646, -3.8300
1489427922.9549438953,1489427922.9572250843, -1.1233, -0.0342,  0.1050, -4.7150, -0.5646, -3.8300
1489427922.9572958946,1489427922.9595749378, -1.1233, -0.0342,  0.1050, -4.7150, -0.5646, -3.8300
1489427922.9596450329,1489427922.9620580673, -1.1233, -0.0342,  0.1050, -4.7150, -0.5646, -3.8300
1489427922.9621300697,1489427922.9644980431, -1.1233, -0.0342,  0.1050, -4.7150, -0.5798, -3.9673
1489427922.9645700455,1489427922.9669430256, -1.1233, -0.0342,  0.1050, -3.9368, -0.5798, -3.9673
1489427922.9670140743,1489427922.9693861008, -1.1270, -0.0212,  0.0918, -3.9368, -0.5798, -3.9673
1489427922.9694569111,1489427922.9720780849, -1.1270, -0.0212,  0.0918, -3.9368, -0.5798, -3.9673
1489427922.9721510410,1489427922.9744360447, -1.1270, -0.0212,  0.0918, -3.9368, -0.5798, -3.6774
1489427922.9745080471,1489427922.9767858982, -1.1270, -0.0212,  0.0918, -4.1199, -0.4425, -3.6774
1489427922.9768569469,1489427922.9791328907, -1.1270, -0.0212,  0.0918, -4.1199, -0.4425, -3.6774
1489427922.9792039394,1489427922.9817209244, -1.1270, -0.0212,  0.0918, -4.1199, -0.4425, -3.6774
1489427922.9817929268,1489427922.9840710163, -1.1270, -0.0212,  0.0918, -4.1199, -0.4425, -3.6774
1489427922.9841420650,1489427922.9864211082, -1.1270, -0.0212,  0.0918, -4.5319, -0.4120, -3.9368
1489427922.9864931107,1489427922.9887809753, -1.1270, -0.0212,  0.0750, -4.5319, -0.4120, -3.9368
1489427922.9888510704,1489427922.9912309647, -1.1316, -0.0239,  0.0750, -4.5319, -0.4120, -3.9368
1489427922.9913010597,1489427922.9935810566, -1.1316, -0.0239,  0.0750, -4.5319, -0.4120, -3.9368
1489427922.9936521053,1489427922.9959309101, -1.1316, -0.0239,  0.0750, -4.5319, -0.4120, -3.6163
1489427922.9960019588,1489427922.9982790947, -1.1316, -0.0239,  0.0750, -4.6539, -0.3662, -3.6163
1489427922.9983489513,1489427923.0006339550, -1.1316, -0.0239,  0.0750, -4.6539, -0.3662, -3.6163
1489427923.0007040501,1489427923.0030550957, -1.1316, -0.0239,  0.0750, -4.6539, -0.3662, -3.6163
1489427923.0032670498,1489427923.0055460930, -1.1316, -0.0239,  0.0750, -4.6539, -0.3662, -3.6163
1489427923.0056159496,1489427923.0079009533, -1.1316, -0.0239,  0.0750, -4.8828, -0.2899, -3.6774
1489427923.0079710484,1489427923.0102539062, -1.1255, -0.0227,  0.0908, -4.8828, -0.2899, -3.6774
1489427923.0103249550,1489427923.0127770901, -1.1255, -0.0227,  0.0908, -4.8828, -0.2899, -3.6774
1489427923.0128479004,1489427923.0151319504, -1.1255, -0.0227,  0.0908, -4.8828, -0.2899, -3.6774
1489427923.0152020454,1489427923.0176689625, -1.1255, -0.0227,  0.0908, -4.9438, -0.2289, -3.7994
1489427923.0177481174,1489427923.0200428963, -1.1255, -0.0227,  0.0908, -4.9438, -0.2289, -3.7994
1489427923.0201148987,1489427923.0233089924, -1.1255, -0.0227,  0.0908, -4.9438, -0.2289, -3.7994
1489427923.0233819485,1489427923.0257909298, -1.1255, -0.0227,  0.0908, -4.9438, -0.2289, -3.7994
1489427923.0258610249,1489427923.0282690525, -1.1255, -0.0227,  0.0908, -5.0049,  0.1221, -3.6621
1489427923.0283410549,1489427923.0307469368, -1.1326, -0.0300,  0.0859, -5.0049,  0.1221, -3.6621
1489427923.0308189392,1489427923.0331249237, -1.1326, -0.0300,  0.0859, -5.0049,  0.1221, -3.6621
1489427923.0331969261,1489427923.0354800224, -1.1326, -0.0300,  0.0859, -5.0049,  0.1221, -3.6621
1489427923.0355520248,1489427923.0378329754, -1.1326, -0.0300,  0.0859, -5.0049,  0.1221, -3.8300
1489427923.0379040241,1489427923.0401868820, -1.1326, -0.0300,  0.0859, -4.8828,  0.1221, -3.8300
1489427923.0402579308,1489427923.0426421165, -1.1326, -0.0300,  0.0859, -4.8828,  0.1221, -3.8300
1489427923.0427141190,1489427923.0451259613, -1.1326, -0.0300,  0.0859, -4.8828,  0.1221, -3.8300
1489427923.0451979637,1489427923.0476100445, -1.1326, -0.0300,  0.0859, -4.8828,  0.1221, -3.8300
1489427923.0476810932,1489427923.0503458977, -1.1289, -0.0242,  0.1016, -4.8370, -0.7172, -3.7384
1489427923.0504190922,1489427923.0527429581, -1.1289, -0.0242,  0.1016, -4.8370, -0.7172, -3.7384
1489427923.0528149605,1489427923.0551009178, -1.1289, -0.0242,  0.1016, -4.8370, -0.7172, -3.7384
1489427923.0551719666,1489427923.0574541092, -1.1289, -0.0242,  0.1016, -4.8370, -0.7172, -3.7384
1489427923.0575261116,1489427923.0598120689, -1.1289, -0.0242,  0.1016, -3.7842, -0.7782, -3.9368
1489427923.0598819256,1489427923.0622379780, -1.1289, -0.0242,  0.1016, -3.7842, -0.7782, -3.9368
1489427923.0623099804,1489427923.0647180080, -1.1289, -0.0242,  0.1016, -3.7842, -0.7782, -3.9368
1489427923.0647890568,1489427923.0671949387, -1.1289, -0.0242,  0.1016, -3.7842, -0.7782, -3.9368
1489427923.0672669411,1489427923.0696759224, -1.1316, -0.0273,  0.0774, -3.7842, -0.7782, -3.5248
1489427923.0697469711,1489427923.0721731186, -1.1316, -0.0273,  0.0774, -4.6387, -0.8087, -3.5248
1489427923.0722429752,1489427923.0746519566, -1.1316, -0.0273,  0.0774, -4.6387, -0.8087, -3.5248
1489427923.0747230053,1489427923.0771329403, -1.1316, -0.0273,  0.0774, -4.6387, -0.8087, -3.5248
1489427923.0772039890,1489427923.0796189308, -1.1316, -0.0273,  0.0774, -4.6387, -0.8087, -3.5248
1489427923.0796890259,1489427923.0820848942, -1.1316, -0.0273,  0.0774, -4.7150, -0.3662, -3.4180
1489427923.0821568966,1489427923.0844419003, -1.1316, -0.0273,  0.0774, -4.7150, -0.3662, -3.4180
1489427923.0845119953,1489427923.0867950916, -1.1316, -0.0273,  0.0774, -4.7150, -0.3662, -3.4180
1489427923.0868659019,1489427923.0891509056, -1.1316, -0.0254,  0.0898, -4.7150, -0.3662, -3.4180
1489427923.0892219543,1489427923.0916540623, -1.1348, -0.0254,  0.0898, -4.3182, -0.5798, -3.5095
1489427923.0917239189,1489427923.0940070152, -1.1348, -0.0254,  0.0898, -4.3182, -0.5798, -3.5095
1489427923.0940771103,1489427923.0963609219, -1.1348, -0.0254,  0.0898, -4.3182, -0.5798, -3.5095
1489427923.0964720249,1489427923.0987560749, -1.1348, -0.0254,  0.0898, -4.3182, -0.5798, -3.5095
1489427923.0988259315,1489427923.1012868881, -1.1348, -0.0254,  0.0898, -4.3182, -0.5798, -3.5095
1489427923.1013579369,1489427923.1037580967, -1.1348, -0.0254,  0.0898, -4.8218, -0.3357, -3.8757
1489427923.1039490700,1489427923.1063480377, -1.1348, -0.0254,  0.0898, -4.8218, -0.3357, -3.8757
1489427923.1064178944,1489427923.1088089943, -1.1348, -0.0254,  0.0793, -4.8218, -0.3357, -3.8757
1489427923.1088790894,1489427923.1112749577, -1.1318, -0.0264,  0.0793, -4.8218, -0.3357, -3.8757
1489427923.1113450527,1489427923.1137139797, -1.1318, -0.0264,  0.0793, -4.1809, -0.3815, -4.0741
1489427923.1137850285,1489427923.1161539555, -1.1318, -0.0264,  0.0793, -4.1809, -0.3815, -4.0741
1489427923.1162250042,1489427923.1185920238, -1.1318, -0.0264,  0.0793, -4.1809, -0.3815, -4.0741
1489427923.1186630726,1489427923.1210429668, -1.1318, -0.0264,  0.0793, -4.1809, -0.3815, -4.0741
1489427923.1211140156,1489427923.1235239506, -1.1318, -0.0264,  0.0793, -4.4098, -0.3662, -3.8300
1489427923.1235959530,1489427923.1260030270, -1.1318, -0.0264,  0.0793, -4.4098, -0.3662, -3.8300
1489427923.1260740757,1489427923.1284821033, -1.1318, -0.0264,  0.0793, -4.4098, -0.3662, -3.8300
1489427923.1285529137,1489427923.1309719086, -1.1326, -0.0278,  0.0852, -4.4098, -0.3662, -3.8300
1489427923.1310429573,1489427923.1333239079, -1.1326, -0.0278,  0.0852, -4.4098, -0.3662, -3.7689
1489427923.1333949566,1489427923.1356830597, -1.1326, -0.0278,  0.0852, -4.6844, -0.5798, -3.7689
1489427923.1357541084,1489427923.1380391121, -1.1326, -0.0278,  0.0852, -4.6844, -0.5798, -3.7689
1489427923.1381089687,1489427923.1403899193, -1.1326, -0.0278,  0.0852, -4.6844, -0.5798, -3.7689
1489427923.1404609680,1489427923.1427590847, -1.1326, -0.0278,  0.0852, -4.6844, -0.5798, -3.7689
1489427923.1428289413,1489427923.1451079845, -1.1326, -0.0278,  0.0852, -4.3182, -0.2899, -3.5248
1489427923.1451780796,1489427923.1474559307, -1.1326, -0.0278,  0.0852, -4.3182, -0.2899, -3.5248
1489427923.1475269794,1489427923.1498041153, -1.1221, -0.0249,  0.0854, -4.3182, -0.2899, -3.5248
1489427923.1498739719,1489427923.1522369385, -1.1221, -0.0249,  0.0854, -4.3182, -0.2899, -3.5248
1489427923.1523079872,1489427923.1547119617, -1.1221, -0.0249,  0.0854, -4.3182, -0.3204, -4.0894
1489427923.1547830105,1489427923.1572370529, -1.1221, -0.0249,  0.0854, -4.1962, -0.3204, -4.0894
1489427923.1573081017,1489427923.1597189903, -1.1221, -0.0249,  0.0854, -4.1962, -0.3204, -4.0894
1489427923.1597909927,1489427923.1622109413, -1.1221, -0.0249,  0.0854, -4.1962, -0.3204, -4.0894
1489427923.1622819901,1489427923.1648190022, -1.1221, -0.0249,  0.0854, -4.1962, -0.3204, -3.5248
1489427923.1648910046,1489427923.1672608852, -1.1221, -0.0249,  0.0854, -4.8218, -1.0223, -3.5248
1489427923.1673309803,1489427923.1703228951, -1.1301, -0.0273,  0.0964, -4.8218, -1.0223, -3.5248
1489427923.1703948975,1489427923.1728169918, -1.1301, -0.0273,  0.0964, -4.8218, -1.0223, -3.5248
1489427923.1728870869,1489427923.1752960682, -1.1301, -0.0273,  0.0964, -4.8218, -1.0223, -3.3875
1489427923.1753659248,1489427923.1777729988, -1.1301, -0.0273,  0.0964, -5.0964, -0.5798, -3.3875
1489427923.1778430939,1489427923.1802558899, -1.1301, -0.0273,  0.0964, -5.0964, -0.5798, -3.3875
1489427923.1803269386,1489427923.1827440262, -1.1301, -0.0273,  0.0964, -5.0964, -0.5798, -3.3875
1489427923.1828138828,1489427923.1852169037, -1.1301, -0.0273,  0.0964, -5.0964, -0.5798, -3.3875
1489427923.1852879524,1489427923.1876978874, -1.1301, -0.0273,  0.0964, -4.1046, -0.5341, -3.2806
1489427923.1877689362,1489427923.1901760101, -1.1345, -0.0266,  0.0852, -4.1046, -0.5341, -3.2806
1489427923.1902470589,1489427923.1925709248, -1.1345, -0.0266,  0.0852, -4.1046, -0.5341, -3.2806
1489427923.1926419735,1489427923.1949219704, -1.1345, -0.0266,  0.0852, -4.1046, -0.5341, -3.2806
1489427923.1949930191,1489427923.1972711086, -1.1345, -0.0266,  0.0852, -4.2725, -0.7782, -3.1891
1489427923.1973419189,1489427923.1996240616, -1.1345, -0.0266,  0.0852, -4.2725, -0.7782, -3.1891
1489427923.1996939182,1489427923.2019860744, -1.1345, -0.0266,  0.0852, -4.2725, -0.7782, -3.1891
1489427923.2020559311,1489427923.2043390274, -1.1345, -0.0266,  0.0852, -4.2725, -0.7782, -3.1891
1489427923.2044088840,1489427923.2067000866, -1.1345, -0.0266,  0.0852, -4.2725, -0.7782, -3.1891
1489427923.2068850994,1489427923.2091710567, -1.1345, -0.0266,  0.0862, -4.5013, -0.8850, -3.1738
1489427923.2092409134,1489427923.2116749287, -1.1370, -0.0283,  0.0862, -4.5013, -0.8850, -3.1738
1489427923.2117459774,1489427923.2140259743, -1.1370, -0.0283,  0.0862, -4.5013, -0.8850, -3.1738
1489427923.2140970230,1489427923.2163848877, -1.1370, -0.0283,  0.0862, -4.5013, -0.8850, -3.1738
1489427923.2164549828,1489427923.2187418938, -1.1370, -0.0283,  0.0862, -4.4098, -0.4272, -3.1433
1489427923.2188129425,1489427923.2212569714, -1.1370, -0.0283,  0.0862, -4.4098, -0.4272, -3.1433
1489427923.2213280201,1489427923.2238440514, -1.1370, -0.0283,  0.0862, -4.4098, -0.4272, -3.1433
1489427923.2239160538,1489427923.2263150215, -1.1370, -0.0283,  0.0862, -4.4098, -0.4272, -3.1433
1489427923.2263851166,1489427923.2287778854, -1.1370, -0.0283,  0.0862, -4.4098,  0.0305, -3.2654
1489427923.2288489342,1489427923.2312810421, -1.1365, -0.0239,  0.0989, -4.0588,  0.0305, -3.2654
1489427923.2313520908,1489427923.2338809967, -1.1365, -0.0239,  0.0989, -4.0588,  0.0305, -3.2654
1489427923.2339599133,1489427923.2362549305, -1.1365, -0.0239,  0.0989, -4.0588,  0.0305, -3.2654
1489427923.2363278866,1489427923.2386119366, -1.1365, -0.0239,  0.0989, -4.0588,  0.0305, -3.3112
1489427923.2386829853,1489427923.2409861088, -1.1365, -0.0239,  0.0989, -4.0436, -0.5035, -3.3112
1489427923.2410581112,1489427923.2434449196, -1.1365, -0.0239,  0.0989, -4.0436, -0.5035, -3.3112
1489427923.2435159683,1489427923.2458000183, -1.1365, -0.0239,  0.0989, -4.0436, -0.5035, -3.3112
1489427923.2458720207,1489427923.2481579781, -1.1365, -0.0239,  0.0989, -4.0436, -0.5035, -3.3112
1489427923.2482299805,1489427923.2505118847, -1.1257, -0.0286,  0.0947, -3.7689, -0.5188, -3.3875
1489427923.2505829334,1489427923.2530701160, -1.1257, -0.0286,  0.0947, -3.7689, -0.5188, -3.3875
1489427923.2531490326,1489427923.2554390430, -1.1257, -0.0286,  0.0947, -3.7689, -0.5188, -3.3875
1489427923.2555110455,1489427923.2580010891, -1.1257, -0.0286,  0.0947, -3.7689, -0.5188, -3.3875
1489427923.2580740452,1489427923.2603569031, -1.1257, -0.0286,  0.0947, -7.6752, -0.1373, -3.2806
1489427923.2604279518,1489427923.2627971172, -1.1257, -0.0286,  0.0947, -4.0283, -0.1373, -3.2806
1489427923.2628679276,1489427923.2653040886, -1.1257, -0.0286,  0.0947, -4.0283, -0.1373, -3.2806
1489427923.2653748989,1489427923.2677850723, -1.1257, -0.0286,  0.0947, -4.0283, -0.1373, -3.2806
1489427923.2678558826,1489427923.2702639103, -1.1301, -0.0254,  0.0930, -4.0283, -0.1373, -3.2806
1489427923.2703349590,1489427923.2727539539, -1.1301, -0.0254,  0.0930, -3.9062, -0.1678, -3.2806
1489427923.2728240490,1489427923.2752349377, -1.1301, -0.0254,  0.0930, -3.9062, -0.1678, -3.2806
1489427923.2753059864,1489427923.2777130604, -1.1301, -0.0254,  0.0930, -3.9062, -0.1678, -3.2806
1489427923.2777850628,1489427923.2801899910, -1.1301, -0.0254,  0.0930, -3.9062, -0.1678, -3.2806
1489427923.2802600861,1489427923.2826719284, -1.1301, -0.0254,  0.0930, -4.1656, -0.2747, -2.8839
1489427923.2827439308,1489427923.2851529121, -1.1301, -0.0254,  0.0930, -4.1656, -0.2747, -2.8839
1489427923.2852230072,1489427923.2876338959, -1.1301, -0.0254,  0.0930, -4.1656, -0.2747, -2.8839
1489427923.2877039909,1489427923.2901089191, -1.1396, -0.0217,  0.0938, -4.1656, -0.2747, -2.8839
1489427923.2901799679,1489427923.2925109863, -1.1396, -0.0217,  0.0938, -4.2114, -0.2441, -3.0365
1489427923.2925820351,1489427923.2948698997, -1.1396, -0.0217,  0.0938, -4.2114, -0.2441, -3.0365
1489427923.2949409485,1489427923.2972190380, -1.1396, -0.0217,  0.0938, -4.2114, -0.2441, -3.0365
1489427923.2972900867,1489427923.2995719910, -1.1396, -0.0217,  0.0938, -4.2114, -0.2441, -3.0365
1489427923.2996420860,1489427923.3020629883, -1.1396, -0.0217,  0.0938, -4.2114, -0.2441, -3.2043
1489427923.3021330833,1489427923.3044159412, -1.1396, -0.0217,  0.0938, -4.2572, -0.1984, -3.2043
1489427923.3044879436,1489427923.3067669868, -1.1396, -0.0217,  0.0938, -4.2572, -0.1984, -3.2043
1489427923.3068370819,1489427923.3091189861, -1.1396, -0.0217,  0.1025, -4.2572, -0.1984, -3.2043
1489427923.3093020916,1489427923.3119220734, -1.1282, -0.0291,  0.1025, -4.2572, -0.1984, -3.2043
1489427923.3120019436,1489427923.3154509068, -1.1282, -0.0291,  0.1025, -4.6082, -0.1526, -2.9755
1489427923.3155300617,1489427923.3185100555, -1.1282, -0.0291,  0.1025, -4.6082, -0.1526, -2.9755
1489427923.3185911179,1489427923.3209960461, -1.1282, -0.0291,  0.1025, -4.6082, -0.1526, -2.9755
1489427923.3210690022,1489427923.3234601021, -1.1282, -0.0291,  0.1025, -4.6082, -0.1526, -3.2196
1489427923.3235330582,1489427923.3259270191, -1.1282, -0.0291,  0.1025, -4.3945, -0.2289, -3.2196
1489427923.3259980679,1489427923.3283851147, -1.1282, -0.0291,  0.1025, -4.3945, -0.2289, -3.2196
1489427923.3284571171,1489427923.3308498859, -1.1279, -0.0156,  0.0830, -4.3945, -0.2289, -3.2196
1489427923.3309829235,1489427923.3333768845, -1.1279, -0.0156,  0.0830, -4.3945, -0.2289, -3.2196
1489427923.3334488869,1489427923.3358449936, -1.1279, -0.0156,  0.0830, -4.5166, -0.3510, -3.4332
1489427923.3359160423,1489427923.3383119106, -1.1279, -0.0156,  0.0830, -4.5166, -0.3510, -3.4332
1489427923.3383820057,1489427923.3407719135, -1.1279, -0.0156,  0.0830, -4.5166, -0.3510, -3.4332
1489427923.3408439159,1489427923.3432381153, -1.1279, -0.0156,  0.0830, -4.5166, -0.3510, -3.4332
1489427923.3433089256,1489427923.3457000256, -1.1279, -0.0156,  0.0830, -4.8218, -0.9460, -3.3569
1489427923.3457720280,1489427923.3481640816, -1.1279, -0.0156,  0.0830, -4.8218, -0.9460, -3.3569
1489427923.3482348919,1489427923.3506300449, -1.1360, -0.0200,  0.0996, -4.8218, -0.9460, -3.3569
1489427923.3507010937,1489427923.3530991077, -1.1360, -0.0200,  0.0996, -4.8218, -0.9460, -3.3569
1489427923.3531689644,1489427923.3554499149, -1.1360, -0.0200,  0.0996, -4.8218, -0.2289, -3.7079
1489427923.3555200100,1489427923.3578000069, -1.1360, -0.0200,  0.0996, -4.6844, -0.2289, -3.7079
1489427923.3578710556,1489427923.3601500988, -1.1360, -0.0200,  0.0996, -4.6844, -0.2289, -3.7079
1489427923.3602209091,1489427923.3625109196, -1.1360, -0.0200,  0.0996, -4.6844, -0.2289, -3.7079
1489427923.3625819683,1489427923.3648619652, -1.1360, -0.0200,  0.0996, -4.6844, -0.2289, -3.7079
1489427923.3649330139,1489427923.3672170639, -1.1360, -0.0200,  0.0996, -4.8370, -0.8698, -3.8300
1489427923.3672881126,1489427923.3695669174, -1.1360, -0.0220,  0.0969, -4.8370, -0.8698, -3.8300
1489427923.3696370125,1489427923.3720090389, -1.1240, -0.0220,  0.0969, -4.8370, -0.8698, -3.8300
1489427923.3720800877,1489427923.3744890690, -1.1240, -0.0220,  0.0969, -4.8370, -0.8698, -3.8300
1489427923.3745610714,1489427923.3769919872, -1.1240, -0.0220,  0.0969, -4.5013, -0.6409, -4.0436
1489427923.3771100044,1489427923.3795158863, -1.1240, -0.0220,  0.0969, -4.5013, -0.6409, -4.0436
1489427923.3795869350,1489427923.3820030689, -1.1240, -0.0220,  0.0969, -4.5013, -0.6409, -4.0436
1489427923.3820741177,1489427923.3844769001, -1.1240, -0.0220,  0.0969, -4.5013, -0.6409, -4.0436
1489427923.3845489025,1489427923.3869531155, -1.1240, -0.0220,  0.0969, -4.5013, -0.6409, -3.9062
1489427923.3870251179,1489427923.3894340992, -1.1240, -0.0220,  0.0930, -4.7150, -0.6409, -3.9062
1489427923.3895049095,1489427923.3919560909, -1.1240, -0.0312,  0.0930, -4.7150, -0.6409, -3.9062
1489427923.3920269012,1489427923.3944270611, -1.1240, -0.0312,  0.0930, -4.7150, -0.6409, -3.9062
1489427923.3944990635,1489427923.3969080448, -1.1240, -0.0312,  0.0930, -4.7150, -0.6409, -3.9062
1489427923.3969800472,1489427923.3993830681, -1.1240, -0.0312,  0.0930, -4.5776,  0.0610, -3.7537
1489427923.3994541168,1489427923.4018158913, -1.1240, -0.0312,  0.0930, -4.5776,  0.0610, -3.7537
1489427923.4018878937,1489427923.4041700363, -1.1240, -0.0312,  0.0930, -4.5776,  0.0610, -3.7537
1489427923.4042410851,1489427923.4065220356, -1.1240, -0.0312,  0.0930, -4.5776,  0.0610, -3.7537
1489427923.4065930843,1489427923.4088790417, -1.1240, -0.0312,  0.0930, -4.5929, -0.3204, -3.6774
1489427923.4089500904,1489427923.4112401009, -1.1270, -0.0208,  0.0996, -4.5929, -0.3204, -3.6774
1489427923.4113121033,1489427923.4135949612, -1.1270, -0.0208,  0.0996, -4.5929, -0.3204, -3.6774
1489427923.4137849808,1489427923.4160749912, -1.1270, -0.0208,  0.0996, -4.5929, -0.3204, -3.6774
1489427923.4161450863,1489427923.4184238911, -1.1270, -0.0208,  0.0996, -4.5929, -0.3204, -3.4790
1489427923.4184949398,1489427923.4207799435, -1.1270, -0.0208,  0.0996, -4.7302, -0.4883, -3.4790
1489427923.4208509922,1489427923.4232170582, -1.1270, -0.0208,  0.0996, -4.7302, -0.4883, -3.4790
1489427923.4232881069,1489427923.4255719185, -1.1270, -0.0208,  0.0996, -4.7302, -0.4883, -3.4790
1489427923.4256429672,1489427923.4279289246, -1.1270, -0.0208,  0.0996, -4.7302, -0.4883, -3.4790
1489427923.4279999733,1489427923.4302740097, -1.1296, -0.0193,  0.0906, -4.3945, -0.3052, -3.8147
1489427923.4303450584,1489427923.4328649044, -1.1296, -0.0193,  0.0906, -4.3945, -0.3052, -3.8147
1489427923.4329359531,1489427923.4353430271, -1.1296, -0.0193,  0.0906, -4.3945, -0.3052, -3.8147
1489427923.4354128838,1489427923.4378139973, -1.1296, -0.0193,  0.0906, -4.3945, -0.3052, -3.8147
1489427923.4378840923,1489427923.4402840137, -1.1296, -0.0193,  0.0906, -4.1351, -0.9918, -3.6163
1489427923.4403550625,1489427923.4427649975, -1.1296, -0.0193,  0.0906, -4.1351, -0.9918, -3.6163
1489427923.4428350925,1489427923.4452381134, -1.1296, -0.0193,  0.0906, -4.1351, -0.9918, -3.6163
1489427923.4453089237,1489427923.4477128983, -1.1296, -0.0193,  0.0906, -4.1351, -0.9918, -3.6163
1489427923.4477829933,1489427923.4501869678, -1.1306, -0.0176,  0.1006, -4.1351, -0.9918, -3.8605
1489427923.4502589703,1489427923.4525759220, -1.1306, -0.0176,  0.1006, -5.2185, -0.5493, -3.8605
1489427923.4526479244,1489427923.4549310207, -1.1306, -0.0176,  0.1006, -5.2185, -0.5493, -3.8605
1489427923.4550020695,1489427923.4572820663, -1.1306, -0.0176,  0.1006, -5.2185, -0.5493, -3.8605
1489427923.4573519230,1489427923.4596381187, -1.1306, -0.0176,  0.1006, -5.2185, -0.5493, -3.8605
1489427923.4597089291,1489427923.4620599747, -1.1306, -0.0176,  0.1006, -5.1270, -0.5798, -4.0283
1489427923.4621319771,1489427923.4645349979, -1.1306, -0.0176,  0.1006, -5.1270, -0.5798, -4.0283
1489427923.4646060467,1489427923.4670159817, -1.1306, -0.0176,  0.1006, -5.1270, -0.5798, -4.0283
1489427923.4670879841,1489427923.4694929123, -1.1306, -0.0176,  0.0977, -5.1270, -0.5798, -4.0283
1489427923.4695661068,1489427923.4719779491, -1.1340, -0.0229,  0.0977, -5.6610, -0.3204, -4.1199
1489427923.4720489979,1489427923.4744589329, -1.1340, -0.0229,  0.0977, -5.6610, -0.3204, -4.1199
1489427923.4745309353,1489427923.4769310951, -1.1340, -0.0229,  0.0977, -5.6610, -0.3204, -4.1199
1489427923.4770019054,1489427923.4794099331, -1.1340, -0.0229,  0.0977, -5.6610, -0.3204, -4.1199
1489427923.4794800282,1489427923.4819219112, -1.1340, -0.0229,  0.0977, -5.6610, -0.3204, -3.8757
1489427923.4819939137,1489427923.4844019413, -1.1340, -0.0229,  0.0977, -5.9204, -0.5493, -3.8757
1489427923.4844739437,1489427923.4868829250, -1.1340, -0.0229,  0.0977, -5.9204, -0.5493, -3.8757
1489427923.4869539738,1489427923.4893589020, -1.1340, -0.0229,  0.0955, -5.9204, -0.5493, -3.8757
1489427923.4894299507,1489427923.4918470383, -1.1382, -0.0225,  0.0955, -5.9204, -0.5493, -3.8757
1489427923.4919180870,1489427923.4943339825, -1.1382, -0.0225,  0.0955, -5.8289, -0.0763, -3.4943
1489427923.4944050312,1489427923.4968080521, -1.1382, -0.0225,  0.0955, -5.8289, -0.0763, -3.4943
1489427923.4968791008,1489427923.4992899895, -1.1382, -0.0225,  0.0955, -5.8289, -0.0763, -3.4943
1489427923.4993610382,1489427923.5017359257, -1.1382, -0.0225,  0.0955, -5.8289, -0.0763, -3.4943
1489427923.5018069744,1489427923.5040891171, -1.1382, -0.0225,  0.0955, -5.9357, -0.3052, -3.0823
1489427923.5041608810,1489427923.5064458847, -1.1382, -0.0225,  0.0955, -5.9357, -0.3052, -3.0823
1489427923.5065169334,1489427923.5087940693, -1.1382, -0.0225,  0.0955, -5.9357, -0.3052, -3.0823
1489427923.5088639259,1489427923.5111780167, -1.1243, -0.0339,  0.0891, -5.9357, -0.3052, -3.0823
1489427923.5112490654,1489427923.5135300159, -1.1243, -0.0339,  0.0891, -5.9357, -0.3052, -3.2959
1489427923.5137019157,1489427923.5159819126, -1.1243, -0.0339,  0.0891, -5.2948, -0.1678, -3.2959
1489427923.5160520077,1489427923.5183329582, -1.1243, -0.0339,  0.0891, -5.2948, -0.1678, -3.2959
1489427923.5184030533,1489427923.5206799507, -1.1243, -0.0339,  0.0891, -5.2948, -0.1678, -3.2959
1489427923.5207500458,1489427923.5232179165, -1.1243, -0.0339,  0.0891, -5.2948, -0.1678, -3.2959
1489427923.5232889652,1489427923.5257050991, -1.1243, -0.0339,  0.0891, -5.0049,  0.0305, -3.3722
1489427923.5257759094,1489427923.5281760693, -1.1243, -0.0339,  0.0891, -5.0049,  0.0305, -3.3722
1489427923.5282471180,1489427923.5306539536, -1.1274, -0.0186,  0.0999, -5.0049,  0.0305, -3.3722
1489427923.5307250023,1489427923.5331490040, -1.1274, -0.0186,  0.0999, -5.0049,  0.0305, -3.3722
1489427923.5332200527,1489427923.5356209278, -1.1274, -0.0186,  0.0999, -5.3864, -0.3052, -3.2501
1489427923.5356919765,1489427923.5380969048, -1.1274, -0.0186,  0.0999, -5.3864, -0.3052, -3.2501
1489427923.5381679535,1489427923.5405769348, -1.1274, -0.0186,  0.0999, -5.3864, -0.3052, -3.2501
1489427923.5406479836,1489427923.5430579185, -1.1274, -0.0186,  0.0999, -5.3864, -0.3052, -3.2501
1489427923.5431299210,1489427923.5455410480, -1.1274, -0.0186,  0.0999, -5.3864, -0.3052, -3.4943
1489427923.5456120968,1489427923.5480179787, -1.1274, -0.0186,  0.0999, -5.7068, -0.2136, -3.4943
1489427923.5480890274,1489427923.5504961014, -1.1313, -0.0220,  0.1013, -5.7068, -0.2136, -3.4943
1489427923.5505669117,1489427923.5528829098, -1.1313, -0.0220,  0.1013, -5.7068, -0.2136, -3.4943
1489427923.5529539585,1489427923.5552339554, -1.1313, -0.0220,  0.1013, -5.7068, -0.2136, -3.4943
1489427923.5553059578,1489427923.5575869083, -1.1313, -0.0220,  0.1013, -5.7983, -0.1678, -3.6163
1489427923.5576570034,1489427923.5599379539, -1.1313, -0.0220,  0.1013, -5.7983, -0.1678, -3.6163
1489427923.5600090027,1489427923.5624029636, -1.1313, -0.0220,  0.1013, -5.7983, -0.1678, -3.6163
1489427923.5624740124,1489427923.5648880005, -1.1313, -0.0220,  0.1013, -5.7983, -0.1678, -3.6163
1489427923.5649590492,1489427923.5673639774, -1.1313, -0.0220,  0.1013, -5.4169, -0.0458, -3.8605
1489427923.5674359798,1489427923.5698409081, -1.1313, -0.0193,  0.1006, -5.4169, -0.0458, -3.8605
1489427923.5699119568,1489427923.5723690987, -1.1309, -0.0193,  0.1006, -5.4169, -0.0458, -3.8605
1489427923.5724399090,1489427923.5748419762, -1.1309, -0.0193,  0.1006, -5.4169, -0.0458, -3.8605
1489427923.5749130249,1489427923.5773189068, -1.1309, -0.0193,  0.1006, -5.4169, -0.7172, -3.7231
1489427923.5773909092,1489427923.5797948837, -1.1309, -0.0193,  0.1006, -4.8828, -0.7172, -3.7231
1489427923.5798659325,1489427923.5822761059, -1.1309, -0.0193,  0.1006, -4.8828, -0.7172, -3.7231
1489427923.5823481083,1489427923.5847580433, -1.1309, -0.0193,  0.1006, -4.8828, -0.7172, -3.7231
1489427923.5848290920,1489427923.5872380733, -1.1309, -0.0193,  0.1006, -4.8828, -0.7172, -3.7231
1489427923.5873088837,1489427923.5897140503, -1.1309, -0.0193,  0.0820, -4.7913, -0.4883, -3.8910
1489427923.5897860527,1489427923.5922040939, -1.1270, -0.0339,  0.0820, -4.7913, -0.4883, -3.8910
1489427923.5922749043,1489427923.5946779251, -1.1270, -0.0339,  0.0820, -4.7913, -0.4883, -3.8910
1489427923.5947489738,1489427923.5971639156, -1.1270, -0.0339,  0.0820, -4.7913, -0.4883, -3.8910
1489427923.5972349644,1489427923.5996389389, -1.1270, -0.0339,  0.0820, -4.4250, -0.3204, -3.9368
1489427923.5997099876,1489427923.6021239758, -1.1270, -0.0339,  0.0820, -4.4250, -0.3204, -3.9368
1489427923.6021950245,1489427923.6044840813, -1.1270, -0.0339,  0.0820, -4.4250, -0.3204, -3.9368
1489427923.6045539379,1489427923.6068370342, -1.1270, -0.0339,  0.0820, -4.4250, -0.3204, -3.9368
1489427923.6069080830,1489427923.6091818810, -1.1270, -0.0339,  0.0820, -0.5188, -0.4425, -4.2725
1489427923.6092529297,1489427923.6115961075, -1.1245, -0.0266,  0.0959, -3.8452, -0.4425, -4.2725
1489427923.6116659641,1489427923.6140699387, -1.1245, -0.0266,  0.0959, -3.8452, -0.4425, -4.2725
1489427923.6141400337,1489427923.6165490150, -1.1245, -0.0266,  0.0959, -3.8452, -0.4425, -4.2725
1489427923.6167271137,1489427923.6191399097, -1.1245, -0.0266,  0.0959, -3.8452, -0.4425, -4.1656
1489427923.6192100048,1489427923.6216130257, -1.1245, -0.0266,  0.0959, -3.9978, -0.3662, -4.1656
1489427923.6216850281,1489427923.6240930557, -1.1245, -0.0266,  0.0959, -3.9978, -0.3662, -4.1656
1489427923.6241641045,1489427923.6265709400, -1.1245, -0.0266,  0.0959, -3.9978, -0.3662, -4.1656
1489427923.6266419888,1489427923.6290409565, -1.1245, -0.0266,  0.0959, -3.9978, -0.3662, -4.1656
1489427923.6291110516,1489427923.6315319538, -1.1245, -0.0278,  0.0918, -3.2959, -0.3510, -4.2877
1489427923.6316030025,1489427923.6340138912, -1.1245, -0.0278,  0.0918, -3.2959, -0.3510, -4.2877
1489427923.6340858936,1489427923.6364970207, -1.1245, -0.0278,  0.0918, -3.2959, -0.3510, -4.2877
1489427923.6365671158,1489427923.6389710903, -1.1245, -0.0278,  0.0918, -3.2959, -0.3510, -4.2877
1489427923.6390419006,1489427923.6414558887, -1.1245, -0.0278,  0.0918, -3.5706, -0.5493, -4.1809
1489427923.6415259838,1489427923.6439399719, -1.1245, -0.0278,  0.0918, -3.5706, -0.5493, -4.1809
1489427923.6440110207,1489427923.6464140415, -1.1245, -0.0278,  0.0918, -3.5706, -0.5493, -4.1809
1489427923.6464850903,1489427923.6488909721, -1.1245, -0.0278,  0.0918, -3.5706, -0.5493, -4.1809
1489427923.6489610672,1489427923.6513640881, -1.1213, -0.0322,  0.0906, -3.5706, -0.6714, -4.2572
1489427923.6514348984,1489427923.6537189484, -1.1213, -0.0322,  0.0906, -4.0894, -0.6714, -4.2572
1489427923.6537890434,1489427923.6560750008, -1.1213, -0.0322,  0.0906, -4.0894, -0.6714, -4.2572
1489427923.6561460495,1489427923.6584289074, -1.1213, -0.0322,  0.0906, -4.0894, -0.6714, -4.2572
1489427923.6584990025,1489427923.6607799530, -1.1213, -0.0322,  0.0906, -4.0894, -0.6714, -4.2572
1489427923.6608510017,1489427923.6632640362, -1.1213, -0.0322,  0.0906, -4.0741, -0.5798, -3.7537
1489427923.6633338928,1489427923.6657409668, -1.1213, -0.0322,  0.0906, -4.0741, -0.5798, -3.7537
1489427923.6658120155,1489427923.6682178974, -1.1213, -0.0322,  0.0906, -4.0741, -0.5798, -3.7537
1489427923.6682879925,1489427923.6706988811, -1.1301, -0.0229,  0.0989, -4.0741, -0.5798, -3.7537
1489427923.6707689762,1489427923.6731889248, -1.1301, -0.0229,  0.0989, -4.1504, -0.3815, -3.5095
1489427923.6732590199,1489427923.6756689548, -1.1301, -0.0229,  0.0989, -4.1504, -0.3815, -3.5095
1489427923.6757400036,1489427923.6781470776, -1.1301, -0.0229,  0.0989, -4.1504, -0.3815, -3.5095
1489427923.6782169342,1489427923.6806230545, -1.1301, -0.0229,  0.0989, -4.1504, -0.3815, -3.5095
1489427923.6806929111,1489427923.6831440926, -1.1301, -0.0229,  0.0989, -4.1504, -0.7782, -3.2806
1489427923.6832139492,1489427923.6856191158, -1.1301, -0.0229,  0.0989, -4.3945, -0.7782, -3.2806
1489427923.6856899261,1489427923.6880960464, -1.1301, -0.0229,  0.0989, -4.3945, -0.7782, -3.2806
1489427923.6881649494,1489427923.6905729771, -1.1284, -0.0269,  0.0874, -4.3945, -0.7782, -3.2806
1489427923.6906430721,1489427923.6930570602, -1.1284, -0.0269,  0.0874, -4.3945, -0.7782, -3.0823
1489427923.6931269169,1489427923.6955389977, -1.1284, -0.0269,  0.0874, -4.5319, -0.7477, -3.0823
1489427923.6956090927,1489427923.6980149746, -1.1284, -0.0269,  0.0874, -4.5319, -0.7477, -3.0823
1489427923.6980850697,1489427923.7004899979, -1.1284, -0.0269,  0.0874, -4.5319, -0.7477, -3.0823
1489427923.7005610466,1489427923.7028810978, -1.1284, -0.0269,  0.0874, -4.5319, -0.7477, -3.0823
1489427923.7029531002,1489427923.7052340508, -1.1284, -0.0269,  0.0874, -4.2419, -0.3815, -3.2501
1489427923.7053050995,1489427923.7075839043, -1.1284, -0.0269,  0.0874, -4.2419, -0.3815, -3.2501
1489427923.7076539993,1489427923.7099339962, -1.1284, -0.0269,  0.0906, -4.2419, -0.3815, -3.2501
1489427923.7100040913,1489427923.7123858929, -1.1294, -0.0254,  0.0906, -4.2419, -0.3815, -3.2501
1489427923.7124569416,1489427923.7148709297, -1.1294, -0.0254,  0.0906, -4.2419, -0.6256, -3.3417
1489427923.7149419785,1489427923.7173449993, -1.1294, -0.0254,  0.0906, -4.2877, -0.6256, -3.3417
1489427923.7174150944,1489427923.7198219299, -1.1294, -0.0254,  0.0906, -4.2877, -0.6256, -3.3417
1489427923.7199978828,1489427923.7224199772, -1.1294, -0.0254,  0.0906, -4.2877, -0.6256, -3.3417
1489427923.7224910259,1489427923.7249031067, -1.1294, -0.0254,  0.0906, -4.2877, -0.6256, -3.2654
1489427923.7249729633,1489427923.7273759842, -1.1294, -0.0254,  0.0906, -4.2419, -0.9613, -3.2654
1489427923.7274470329,1489427923.7298550606, -1.1294, -0.0254,  0.0903, -4.2419, -0.9613, -3.2654
1489427923.7299261093,1489427923.7323489189, -1.1265, -0.0225,  0.0903, -4.2419, -0.9613, -3.2654
1489427923.7324199677,1489427923.7348330021, -1.1265, -0.0225,  0.0903, -4.2419, -0.9613, -3.2654
1489427923.7349030972,1489427923.7373108864, -1.1265, -0.0225,  0.0903, -4.1656, -0.6256, -3.0975
1489427923.7373809814,1489427923.7397859097, -1.1265, -0.0225,  0.0903, -4.1656, -0.6256, -3.0975
1489427923.7398560047,1489427923.7422800064, -1.1265, -0.0225,  0.0903, -4.1656, -0.6256, -3.0975
1489427923.7423501015,1489427923.7447550297, -1.1265, -0.0225,  0.0903, -4.1656, -0.6256, -3.0975
1489427923.7448260784,1489427923.7472319603, -1.1265, -0.0225,  0.0903, -4.6234, -0.7324, -2.8839
1489427923.7473020554,1489427923.7497160435, -1.1265, -0.0225,  0.1035, -4.6234, -0.7324, -2.8839
1489427923.7497870922,1489427923.7521460056, -1.1267, -0.0251,  0.1035, -4.6234, -0.7324, -2.8839
1489427923.7522170544,1489427923.7545099258, -1.1267, -0.0251,  0.1035, -4.6234, -0.7324, -2.8839
1489427923.7545800209,1489427923.7568619251, -1.1267, -0.0251,  0.1035, -4.6234, -0.7324, -2.8992
1489427923.7569329739,1489427923.7592101097, -1.1267, -0.0251,  0.1035, -4.4861, -0.7629, -2.8992
1489427923.7592809200,1489427923.7617061138, -1.1267, -0.0251,  0.1035, -4.4861, -0.7629, -2.8992
1489427923.7617781162,1489427923.7640581131, -1.1267, -0.0251,  0.1035, -4.4861, -0.7629, -2.8992
1489427923.7641301155,1489427923.7664039135, -1.1267, -0.0251,  0.1035, -4.4861, -0.7629, -2.8992
1489427923.7664749622,1489427923.7687549591, -1.1267, -0.0251,  0.1035, -3.7537, -0.8545, -3.2196
1489427923.7688269615,1489427923.7711780071, -1.1326, -0.0269,  0.0901, -3.7537, -0.8545, -3.2196
1489427923.7712490559,1489427923.7736589909, -1.1326, -0.0269,  0.0901, -3.7537, -0.8545, -3.2196
1489427923.7737300396,1489427923.7761359215, -1.1326, -0.0269,  0.0901, -3.7537, -0.8545, -3.2196
1489427923.7762060165,1489427923.7786059380, -1.1326, -0.0269,  0.0901, -3.7384, -0.3510, -3.0365
1489427923.7786779404,1489427923.7810850143, -1.1326, -0.0269,  0.0901, -3.7384, -0.3510, -3.0365
1489427923.7811570168,1489427923.7835590839, -1.1326, -0.0269,  0.0901, -3.7384, -0.3510, -3.0365
1489427923.7836289406,1489427923.7860319614, -1.1326, -0.0269,  0.0901, -3.7384, -0.3510, -3.0365
1489427923.7861030102,1489427923.7885088921, -1.1326, -0.0269,  0.0901, -3.7384, -0.3510, -3.0975
1489427923.7885799408,1489427923.7909929752, -1.1306, -0.0183,  0.0940, -4.5319, -0.3204, -3.0975
1489427923.7910630703,1489427923.7934670448, -1.1306, -0.0183,  0.0940, -4.5319, -0.3204, -3.0975
1489427923.7935369015,1489427923.7959430218, -1.1306, -0.0183,  0.0940, -4.5319, -0.3204, -3.0975
1489427923.7960131168,1489427923.7984449863, -1.1306, -0.0183,  0.0940, -4.5319, -0.3204, -3.0975
1489427923.7985169888,1489427923.8009378910, -1.1306, -0.0183,  0.0940, -4.7150, -0.6409, -2.9449
1489427923.8010089397,1489427923.8034129143, -1.1306, -0.0183,  0.0940, -4.7150, -0.6409, -2.9449
1489427923.8034839630,1489427923.8058910370, -1.1306, -0.0183,  0.0940, -4.7150, -0.6409, -2.9449
1489427923.8059608936,1489427923.8083679676, -1.1306, -0.0183,  0.0940, -4.7150, -0.6409, -2.9449
1489427923.8084390163,1489427923.8108479977, -1.1270, -0.0259,  0.1023, -4.5471, -0.1068, -3.4637
1489427923.8109729290,1489427923.8132610321, -1.1270, -0.0259,  0.1023, -4.5471, -0.1068, -3.4637
1489427923.8133330345,1489427923.8156180382, -1.1270, -0.0259,  0.1023, -4.5471, -0.1068, -3.4637
1489427923.8156900406,1489427923.8179690838, -1.1270, -0.0259,  0.1023, -4.5471, -0.1068, -3.4637
1489427923.8180410862,1489427923.8203299046, -1.1270, -0.0259,  0.1023, -4.5471, -0.1068, -3.8757
1489427923.8204009533,1489427923.8227880001, -1.1270, -0.0259,  0.1023, -4.4098, -0.3815, -3.8757
1489427923.8229649067,1489427923.8253669739, -1.1270, -0.0259,  0.1023, -4.4098, -0.3815, -3.8757
1489427923.8254389763,1489427923.8278510571, -1.1270, -0.0259,  0.1023, -4.4098, -0.3815, -3.8757
1489427923.8279230595,1489427923.8303279877, -1.1270, -0.0286,  0.0820, -4.4098, -0.3815, -3.8757
1489427923.8303990364,1489427923.8328208923, -1.1294, -0.0286,  0.0820, -3.8300, -0.9918, -3.1433
1489427923.8328919411,1489427923.8352949619, -1.1294, -0.0286,  0.0820, -3.8300, -0.9918, -3.1433
1489427923.8353660107,1489427923.8377749920, -1.1294, -0.0286,  0.0820, -3.8300, -0.9918, -3.1433
1489427923.8378469944,1489427923.8402640820, -1.1294, -0.0286,  0.0820, -3.8300, -0.9918, -3.1433
1489427923.8403360844,1489427923.8427579403, -1.1294, -0.0286,  0.0820, -3.6316, -0.3662, -3.3417
1489427923.8428280354,1489427923.8452339172, -1.1294, -0.0286,  0.0820, -3.6316, -0.3662, -3.3417
1489427923.8453049660,1489427923.8477189541, -1.1294, -0.0286,  0.0820, -3.6316, -0.3662, -3.3417
1489427923.8477900028,1489427923.8501999378, -1.1294, -0.0286,  0.0935, -3.6316, -0.3662, -3.3417
1489427923.8502709866,1489427923.8526909351, -1.1318, -0.0232,  0.0935, -3.4790, -0.4272, -3.1891
1489427923.8527610302,1489427923.8551640511, -1.1318, -0.0232,  0.0935, -3.4790, -0.4272, -3.1891
1489427923.8552350998,1489427923.8576459885, -1.1318, -0.0232,  0.0935, -3.4790, -0.4272, -3.1891
1489427923.8577170372,1489427923.8601279259, -1.1318, -0.0232,  0.0935, -3.4790, -0.4272, -3.1891
1489427923.8601999283,1489427923.8625380993, -1.1318, -0.0232,  0.0935, -3.4790, -0.4272, -3.2196
1489427923.8626089096,1489427923.8648920059, -1.1318, -0.0232,  0.0935, -3.9825, -0.6409, -3.2196
1489427923.8649621010,1489427923.8672471046, -1.1318, -0.0232,  0.0935, -3.9825, -0.6409, -3.2196
1489427923.8673179150,1489427923.8695991039, -1.1318, -0.0232,  0.0935, -3.9825, -0.6409, -3.2196
1489427923.8696699142,1489427923.8720331192, -1.1328, -0.0164,  0.1021, -3.9825, -0.6409, -3.2196
1489427923.8721048832,1489427923.8745141029, -1.1328, -0.0164,  0.1021, -4.2114, -0.6104, -3.4180
1489427923.8745870590,1489427923.8769929409, -1.1328, -0.0164,  0.1021, -4.2114, -0.6104, -3.4180
1489427923.8770639896,1489427923.8794779778, -1.1328, -0.0164,  0.1021, -4.2114, -0.6104, -3.4180
1489427923.8795499802,1489427923.8819599152, -1.1328, -0.0164,  0.1021, -4.2114, -0.6104, -3.4180
1489427923.8820319176,1489427923.8844211102, -1.1328, -0.0164,  0.1021, -4.5776, -0.5798, -3.6774
1489427923.8844931126,1489427923.8868880272, -1.1328, -0.0164,  0.1021, -4.5776, -0.5798, -3.6774
1489427923.8869590759,1489427923.8893480301, -1.1328, -0.0164,  0.1021, -4.5776, -0.5798, -3.6774
1489427923.8894190788,1489427923.8918120861, -1.1301, -0.0330,  0.1013, -4.5776, -0.5798, -3.6774
1489427923.8918828964,1489427923.8942470551, -1.1301, -0.0330,  0.1013, -4.5776, -0.5798, -3.4332
1489427923.8943181038,1489427923.8966801167, -1.1301, -0.0330,  0.1013, -4.7455, -0.7019, -3.4332
1489427923.8967509270,1489427923.8991630077, -1.1301, -0.0330,  0.1013, -4.7455, -0.7019, -3.4332
1489427923.8992350101,1489427923.9016530514, -1.1301, -0.0330,  0.1013, -4.7455, -0.7019, -3.4332
1489427923.9017250538,1489427923.9041280746, -1.1301, -0.0330,  0.1013, -4.7455, -0.7019, -3.4332
1489427923.9041988850,1489427923.9066090584, -1.1301, -0.0330,  0.1013, -4.6234, -0.4883, -3.1738
1489427923.9066820145,1489427923.9090859890, -1.1301, -0.0330,  0.1013, -4.6234, -0.4883, -3.1738
1489427923.9091579914,1489427923.9115500450, -1.1343, -0.0186,  0.1050, -4.6234, -0.4883, -3.1738
1489427923.9116220474,1489427923.9138998985, -1.1343, -0.0186,  0.1050, -4.6234, -0.4883, -3.1738
1489427923.9139709473,1489427923.9162530899, -1.1343, -0.0186,  0.1050, -4.8065, -0.4730, -2.9907
1489427923.9163239002,1489427923.9186110497, -1.1343, -0.0186,  0.1050, -4.8065, -0.4730, -2.9907
1489427923.9186830521,1489427923.9209949970, -1.1343, -0.0186,  0.1050, -4.8065, -0.4730, -2.9907
1489427923.9210669994,1489427923.9234740734, -1.1343, -0.0186,  0.1050, -4.8065, -0.4730, -2.9907
1489427923.9235460758,1489427923.9259541035, -1.1343, -0.0186,  0.1050, -4.8065, -0.4730, -2.7161
1489427923.9261300564,1489427923.9285380840, -1.1343, -0.0186,  0.1050, -5.2032, -0.2441, -2.7161
1489427923.9286088943,1489427923.9310259819, -1.1294, -0.0186,  0.1082, -5.2032, -0.2441, -2.7161
1489427923.9310970306,1489427923.9335010052, -1.1294, -0.0186,  0.1082, -5.2032, -0.2441, -2.7161
1489427923.9335720539,1489427923.9359779358, -1.1294, -0.0186,  0.1082, -5.2032, -0.2441, -2.7161
1489427923.9360489845,1489427923.9384601116, -1.1294, -0.0186,  0.1082, -5.7831, -0.0458, -2.8381
1489427923.9385309219,1489427923.9409461021, -1.1294, -0.0186,  0.1082, -5.7831, -0.0458, -2.8381
1489427923.9410181046,1489427923.9434230328, -1.1294, -0.0186,  0.1082, -5.7831, -0.0458, -2.8381
1489427923.9434940815,1489427923.9459030628, -1.1294, -0.0186,  0.1082, -5.7831, -0.0458, -2.8381
1489427923.9459741116,1489427923.9483819008, -1.1294, -0.0186,  0.1082, -5.9357,  0.0763, -2.7924
1489427923.9484529495,1489427923.9508700371, -1.1294, -0.0198,  0.0942, -5.9357,  0.0763, -2.7924
1489427923.9509921074,1489427923.9534010887, -1.1289, -0.0198,  0.0942, -5.9357,  0.0763, -2.7924
1489427923.9534709454,1489427923.9558770657, -1.1289, -0.0198,  0.0942, -5.9357,  0.0763, -2.7924
1489427923.9559481144,1489427923.9583549500, -1.1289, -0.0198,  0.0942, -5.9357, -0.3967, -3.1586
1489427923.9584250450,1489427923.9608299732, -1.1289, -0.0198,  0.0942, -5.9357, -0.3967, -3.1586
1489427923.9609510899,1489427923.9632339478, -1.1289, -0.0198,  0.0942, -5.9357, -0.3967, -3.1586
1489427923.9633040428,1489427923.9655919075, -1.1289, -0.0198,  0.0942, -5.9357, -0.3967, -3.1586
1489427923.9656610489,1489427923.9679419994, -1.1289, -0.0198,  0.0942, -5.9357, -0.3967, -3.1433
1489427923.9680120945,1489427923.9702970982, -1.1289, -0.0198,  0.1094, -6.4545, -0.2899, -3.1433
1489427923.9703679085,1489427923.9728000164, -1.1313, -0.0181,  0.1094, -6.4545, -0.2899, -3.1433
1489427923.9728720188,1489427923.9752800465, -1.1313, -0.0181,  0.1094, -6.4545, -0.2899, -3.1433
1489427923.9753510952,1489427923.9777610302, -1.1313, -0.0181,  0.1094, -6.4545, -0.2899, -3.1433
1489427923.9778320789,1489427923.9802350998, -1.1313, -0.0181,  0.1094, -7.2021, -0.9766, -2.7924
1489427923.9803071022,1489427923.9827780724, -1.1313, -0.0181,  0.1094, -7.2021, -0.9766, -2.7924
1489427923.9828500748,1489427923.9852590561, -1.1313, -0.0181,  0.1094, -7.2021, -0.9766, -2.7924
1489427923.9853320122,1489427923.9877390862, -1.1313, -0.0181,  0.1094, -7.2021, -0.9766, -2.7924
1489427923.9878110886,1489427923.9902238846, -1.1313, -0.0181,  0.0928, -7.3090, -0.9613, -2.9144
1489427923.9902970791,1489427923.9927539825, -1.1313, -0.0134,  0.0928, -7.3090, -0.9613, -2.9144
1489427923.9928259850,1489427923.9952309132, -1.1313, -0.0134,  0.0928, -7.3090, -0.9613, -2.9144
1489427923.9953019619,1489427923.9977169037, -1.1313, -0.0134,  0.0928, -7.3090, -0.9613, -2.9144
1489427923.9977869987,1489427924.0001978874, -1.1313, -0.0134,  0.0928, -7.3090, -0.7935, -2.9755
1489427924.0002689362,1489427924.0026819706, -1.1313, -0.0134,  0.0928, -7.2479, -0.7935, -2.9755
1489427924.0027530193,1489427924.0051639080, -1.1313, -0.0134,  0.0928, -7.2479, -0.7935, -2.9755
1489427924.0052340031,1489427924.0076410770, -1.1313, -0.0134,  0.0928, -7.2479, -0.7935, -2.9755
1489427924.0077099800,1489427924.0101239681, -1.1313, -0.0134,  0.1084, -7.2479, -0.7935, -2.9755
1489427924.0101959705,1489427924.0125360489, -1.1230, -0.0308,  0.1084, -7.7362, -0.8392, -2.9907
1489427924.0126080513,1489427924.0148909092, -1.1230, -0.0308,  0.1084, -7.7362, -0.8392, -2.9907
1489427924.0149629116,1489427924.0172510147, -1.1230, -0.0308,  0.1084, -7.7362, -0.8392, -2.9907
1489427924.0173220634,1489427924.0196020603, -1.1230, -0.0308,  0.1084, -7.7362, -0.8392, -2.9907
1489427924.0196731091,1489427924.0220329762, -1.1230, -0.0308,  0.1084, -6.5460, -1.1597, -3.2654
1489427924.0221040249,1489427924.0245130062, -1.1230, -0.0308,  0.1084, -6.5460, -1.1597, -3.2654
1489427924.0245831013,1489427924.0269899368, -1.1230, -0.0308,  0.1084, -6.5460, -1.1597, -3.2654
1489427924.0271589756,1489427924.0295720100, -1.1230, -0.0308,  0.1084, -6.5460, -1.1597, -3.2654
1489427924.0296430588,1489427924.0320510864, -1.1292, -0.0183,  0.1108, -6.5460, -1.0529, -3.3875
1489427924.0321218967,1489427924.0345239639, -1.1292, -0.0183,  0.1108, -6.8817, -1.0529, -3.3875
1489427924.0345950127,1489427924.0370039940, -1.1292, -0.0183,  0.1108, -6.8817, -1.0529, -3.3875
1489427924.0370750427,1489427924.0394780636, -1.1292, -0.0183,  0.1108, -6.8817, -1.0529, -3.3875
1489427924.0395479202,1489427924.0419650078, -1.1292, -0.0183,  0.1108, -6.8817, -1.0529, -2.9297
1489427924.0420360565,1489427924.0444440842, -1.1292, -0.0183,  0.1108, -6.8817, -1.3580, -2.9297
1489427924.0445148945,1489427924.0469241142, -1.1292, -0.0183,  0.1108, -6.8817, -1.3580, -2.9297
1489427924.0469949245,1489427924.0494000912, -1.1292, -0.0183,  0.1108, -6.8817, -1.3580, -2.9297
1489427924.0494699478,1489427924.0518798828, -1.1309, -0.0088,  0.0830, -6.8817, -1.3580, -2.9297
1489427924.0519509315,1489427924.0543520451, -1.1309, -0.0088,  0.0830, -7.3547, -1.3580, -2.9602
1489427924.0544230938,1489427924.0568389893, -1.1309, -0.0088,  0.0830, -7.3547, -1.3580, -2.9602
1489427924.0569090843,1489427924.0593149662, -1.1309, -0.0088,  0.0830, -7.3547, -1.3580, -2.9602
1489427924.0593860149,1489427924.0617671013, -1.1309, -0.0088,  0.0830, -7.3547, -1.3580, -2.9602
1489427924.0618391037,1489427924.0641179085, -1.1309, -0.0088,  0.0830, -8.3466, -1.0986, -2.8687
1489427924.0641899109,1489427924.0664710999, -1.1309, -0.0088,  0.0830, -8.3466, -1.0986, -2.8687
1489427924.0665419102,1489427924.0688250065, -1.1309, -0.0088,  0.0830, -8.3466, -1.0986, -2.8687
1489427924.0688960552,1489427924.0712110996, -1.1438, -0.0208,  0.0776, -8.3466, -1.0986, -2.8687
1489427924.0712809563,1489427924.0736749172, -1.1438, -0.0208,  0.0776, -8.3466, -1.0986, -2.8839
1489427924.0737459660,1489427924.0761470795, -1.1438, -0.0208,  0.0776, -9.1705, -1.3428, -2.8839
1489427924.0762178898,1489427924.0786089897, -1.1438, -0.0208,  0.0776, -9.1705, -1.3428, -2.8839
1489427924.0786790848,1489427924.0810759068, -1.1438, -0.0208,  0.0776, -9.1705, -1.3428, -2.8839
1489427924.0811460018,1489427924.0835430622, -1.1438, -0.0208,  0.0776, -9.1705, -1.3428, -2.8839
1489427924.0836129189,1489427924.0860030651, -1.1438, -0.0208,  0.0776, -9.1553, -1.3428, -2.6245
1489427924.0860729218,1489427924.0884718895, -1.1438, -0.0208,  0.0776, -9.1553, -1.3428, -2.6245
1489427924.0885419846,1489427924.0909419060, -1.1438, -0.0356,  0.1001, -9.1553, -1.3428, -2.6245
1489427924.0910139084,1489427924.0934050083, -1.1333, -0.0356,  0.1001, -9.1553, -1.3428, -2.6245
1489427924.0934770107,1489427924.0958778858, -1.1333, -0.0356,  0.1001, -9.0027, -1.2054, -2.1973
1489427924.0959498882,1489427924.0983428955, -1.1333, -0.0356,  0.1001, -9.0027, -1.2054, -2.1973
1489427924.0984139442,1489427924.1008090973, -1.1333, -0.0356,  0.1001, -9.0027, -1.2054, -2.1973
1489427924.1008810997,1489427924.1033170223, -1.1333, -0.0356,  0.1001, -9.0027, -1.2054, -2.1973
1489427924.1033890247,1489427924.1057789326, -1.1333, -0.0356,  0.1001, -9.0027, -1.1444, -2.0294
1489427924.1058509350,1489427924.1082460880, -1.1333, -0.0356,  0.1001, -8.3466, -1.1444, -2.0294
1489427924.1083168983,1489427924.1107099056, -1.1333, -0.0310,  0.1057, -8.3466, -1.1444, -2.0294
1489427924.1107809544,1489427924.1130790710, -1.1257, -0.0310,  0.1057, -8.3466, -1.1444, -2.0294
1489427924.1131510735,1489427924.1154410839, -1.1257, -0.0310,  0.1057, -8.3466, -1.1444, -2.0294
1489427924.1155118942,1489427924.1177930832, -1.1257, -0.0310,  0.1057, -6.9580, -1.1902, -1.6479
1489427924.1178629398,1489427924.1201450825, -1.1257, -0.0310,  0.1057, -6.9580, -1.1902, -1.6479
1489427924.1202149391,1489427924.1225070953, -1.1257, -0.0310,  0.1057, -6.9580, -1.1902, -1.6479
1489427924.1225769520,1489427924.1248519421, -1.1257, -0.0310,  0.1057, -6.9580, -1.1902, -1.6479
1489427924.1249220371,1489427924.1272070408, -1.1257, -0.0310,  0.1057, -6.3171, -1.1749, -1.4191
1489427924.1272768974,1489427924.1295530796, -1.1257, -0.0310,  0.1057, -6.3171, -1.1749, -1.4191
1489427924.1297340393,1489427924.1321070194, -1.1284, -0.0271,  0.1052, -6.3171, -1.1749, -1.4191
1489427924.1321780682,1489427924.1345899105, -1.1284, -0.0271,  0.1052, -6.3171, -1.1749, -1.4191
1489427924.1346609592,1489427924.1370689869, -1.1284, -0.0271,  0.1052, -6.3171, -1.1749, -1.4954
1489427924.1371390820,1489427924.1395471096, -1.1284, -0.0271,  0.1052, -5.7983, -1.0223, -1.4954
1489427924.1396179199,1489427924.1420440674, -1.1284, -0.0271,  0.1052, -5.7983, -1.0223, -1.4954
1489427924.1421139240,1489427924.1445190907, -1.1284, -0.0271,  0.1052, -5.7983, -1.0223, -1.4954
1489427924.1445899010,1489427924.1469988823, -1.1284, -0.0271,  0.1052, -5.7983, -1.0223, -1.4954
1489427924.1470699310,1489427924.1494779587, -1.1284, -0.0271,  0.1052, -5.1117, -1.4954, -0.7477
1489427924.1495490074,1489427924.1519629955, -1.1367, -0.0300,  0.0889, -5.1117, -1.4954, -0.7477
1489427924.1520330906,1489427924.1544439793, -1.1367, -0.0300,  0.0889, -5.1117, -1.4954, -0.7477
1489427924.1545150280,1489427924.1569249630, -1.1367, -0.0300,  0.0889, -5.1117, -1.4954, -0.7477
1489427924.1569969654,1489427924.1594030857, -1.1367, -0.0300,  0.0889, -5.5084, -1.4954, -1.0223
1489427924.1594738960,1489427924.1619319916, -1.1367, -0.0300,  0.0889, -5.5084, -1.4954, -1.0223
1489427924.1620030403,1489427924.1644120216, -1.1367, -0.0300,  0.0889, -5.5084, -1.4954, -1.0223
1489427924.1644809246,1489427924.1668930054, -1.1367, -0.0300,  0.0889, -5.5084, -1.4954, -1.0223
1489427924.1669619083,1489427924.1693699360, -1.1367, -0.0300,  0.0889, -5.5084, -1.6479, -1.2054
1489427924.1694400311,1489427924.1718120575, -1.1433, -0.0186,  0.0833, -5.3406, -1.6479, -1.2054
1489427924.1718819141,1489427924.1741709709, -1.1433, -0.0186,  0.0833, -5.3406, -1.6479, -1.2054
1489427924.1742401123,1489427924.1765239239, -1.1433, -0.0186,  0.0833, -5.3406, -1.6479, -1.2054
1489427924.1765930653,1489427924.1788740158, -1.1433, -0.0186,  0.0833, -5.3406, -1.6479, -1.2054
1489427924.1789429188,1489427924.1812570095, -1.1433, -0.0186,  0.0833, -5.1880, -1.8463, -1.1902
1489427924.1813271046,1489427924.1837170124, -1.1433, -0.0186,  0.0833, -5.1880, -1.8463, -1.1902
1489427924.1837871075,1489427924.1861810684, -1.1433, -0.0186,  0.0833, -5.1880, -1.8463, -1.1902
1489427924.1862509251,1489427924.1886429787, -1.1433, -0.0186,  0.0833, -5.1880, -1.8463, -1.1902
1489427924.1887118816,1489427924.1911530495, -1.1433, -0.0112,  0.0623, -4.6844, -2.5787, -2.3346
1489427924.1912229061,1489427924.1936149597, -1.1411, -0.0112,  0.0623, -4.6844, -2.5787, -2.3346
1489427924.1936850548,1489427924.1960740089, -1.1411, -0.0112,  0.0623, -4.6844, -2.5787, -2.3346
1489427924.1961429119,1489427924.1985321045, -1.1411, -0.0112,  0.0623, -4.6844, -2.5787, -2.3346
1489427924.1986010075,1489427924.2010059357, -1.1411, -0.0112,  0.0623, -4.6844, -2.8687, -3.7231
1489427924.2010760307,1489427924.2034618855, -1.1411, -0.0112,  0.0623, -3.8452, -2.8687, -3.7231
1489427924.2035329342,1489427924.2059218884, -1.1411, -0.0112,  0.0623, -3.8452, -2.8687, -3.7231
1489427924.2059919834,1489427924.2083818913, -1.1411, -0.0112,  0.0623, -3.8452, -2.8687, -3.7231
1489427924.2084510326,1489427924.2108418941, -1.1411,  0.0034,  0.1006, -3.8452, -2.8687, -7.6294
1489427924.2109620571,1489427924.2133359909, -1.1340,  0.0034,  0.1006, -4.0131, -2.8229, -4.3335
1489427924.2134070396,1489427924.2157719135, -1.1340,  0.0034,  0.1006, -4.0131, -2.8229, -4.3335
1489427924.2158420086,1489427924.2182090282, -1.1340,  0.0034,  0.1006, -4.0131, -2.8229, -4.3335
1489427924.2182800770,1489427924.2206509113, -1.1340,  0.0034,  0.1006, -4.0131, -2.8229, -4.3335
1489427924.2207219601,1489427924.2231390476, -1.1340,  0.0034,  0.1006, -4.7302, -3.5553, -4.8981
1489427924.2232120037,1489427924.2254989147, -1.1340,  0.0034,  0.1006, -4.7302, -3.5553, -4.8981
1489427924.2255699635,1489427924.2278549671, -1.1340,  0.0034,  0.1006, -4.7302, -3.5553, -4.8981
1489427924.2279269695,1489427924.2302069664, -1.1340,  0.0034,  0.1006, -4.7302, -3.5553, -4.8981
1489427924.2302780151,1489427924.2327780724, -1.1147, -0.0227,  0.1199, -4.7302, -3.6621, -5.4626
1489427924.2329590321,1489427924.2353539467, -1.1147, -0.0227,  0.1199, -5.2490, -3.6621, -5.4626
1489427924.2354240417,1489427924.2378129959, -1.1147, -0.0227,  0.1199, -5.2490, -3.6621, -5.4626
1489427924.2378830910,1489427924.2402799129, -1.1147, -0.0227,  0.1199, -5.2490, -3.6621, -5.4626
1489427924.2403500080,1489427924.2428150177, -1.1147, -0.0227,  0.1199, -5.2490, -3.6621, -5.4016
1489427924.2428860664,1489427924.2452778816, -1.1147, -0.0227,  0.1199, -5.2795, -3.8147, -5.4016
1489427924.2453470230,1489427924.2477369308, -1.1147, -0.0227,  0.1199, -5.2795, -3.8147, -5.4016
1489427924.2478070259,1489427924.2502000332, -1.1147, -0.0227,  0.1199, -5.2795, -3.8147, -5.4016
1489427924.2502698898,1489427924.2528030872, -1.1174, -0.0139,  0.1272, -5.2795, -3.8147, -5.4016
1489427924.2528729439,1489427924.2552640438, -1.1174, -0.0139,  0.1272, -5.3864, -3.6926, -5.6763
1489427924.2553350925,1489427924.2577240467, -1.1174, -0.0139,  0.1272, -5.3864, -3.6926, -5.6763
1489427924.2577929497,1489427924.2601909637, -1.1174, -0.0139,  0.1272, -5.3864, -3.6926, -5.6763
1489427924.2602610588,1489427924.2627520561, -1.1174, -0.0139,  0.1272, -5.3864, -3.6926, -5.6763
1489427924.2628231049,1489427924.2652249336, -1.1174, -0.0139,  0.1272, -5.4169, -3.9215, -5.5389
1489427924.2652950287,1489427924.2676858902, -1.1174, -0.0139,  0.1272, -5.4169, -3.9215, -5.5389
1489427924.2677550316,1489427924.2701480389, -1.1174, -0.0139,  0.1272, -5.4169, -3.9215, -5.5389
1489427924.2702178955,1489427924.2725830078, -1.1245, -0.0176,  0.0876, -5.4169, -3.9215, -5.5389
1489427924.2726531029,1489427924.2749280930, -1.1245, -0.0176,  0.0876, -5.4169, -3.8300, -5.5695
1489427924.2749979496,1489427924.2772760391, -1.1245, -0.0176,  0.0876, -5.9204, -3.8300, -5.5695
1489427924.2773458958,1489427924.2796339989, -1.1245, -0.0176,  0.0876, -5.9204, -3.8300, -5.5695
1489427924.2797029018,1489427924.2820520401, -1.1245, -0.0176,  0.0876, -5.9204, -3.8300, -5.5695
1489427924.2821218967,1489427924.2845330238, -1.1245, -0.0176,  0.0876, -5.9204, -3.8300, -5.5695
1489427924.2846031189,1489427924.2870099545, -1.1245, -0.0176,  0.0876, -6.9275, -4.2267, -5.1575
1489427924.2870800495,1489427924.2894868851, -1.1245, -0.0176,  0.0876, -6.9275, -4.2267, -5.1575
1489427924.2895560265,1489427924.2919769287, -1.1296, -0.0212,  0.0703, -6.9275, -4.2267, -5.1575
1489427924.2920470238,1489427924.2944478989, -1.1296, -0.0212,  0.0703, -6.9275, -4.2267, -5.1575
1489427924.2945170403,1489427924.2969219685, -1.1296, -0.0212,  0.0703, -7.4921, -4.0131, -4.2419
1489427924.2969920635,1489427924.2993979454, -1.1296, -0.0212,  0.0703, -7.4921, -4.0131, -4.2419
1489427924.2994670868,1489427924.3018839359, -1.1296, -0.0212,  0.0703, -7.4921, -4.0131, -4.2419
1489427924.3019540310,1489427924.3043589592, -1.1296, -0.0212,  0.0703, -7.4921, -4.0131, -4.2419
1489427924.3044281006,1489427924.3068280220, -1.1296, -0.0212,  0.0703,-11.3983, -4.1046, -4.1809
1489427924.3069019318,1489427924.3093030453, -1.1296, -0.0212,  0.0703, -8.5144, -4.1046, -4.1809
1489427924.3093729019,1489427924.3117969036, -1.1299, -0.0293,  0.1016, -8.5144, -4.1046, -4.1809
1489427924.3118689060,1489427924.3142669201, -1.1299, -0.0293,  0.1016, -8.5144, -4.1046, -4.1809
1489427924.3143389225,1489427924.3167419434, -1.1299, -0.0293,  0.1016, -8.5144, -4.1046, -3.8452
1489427924.3168129921,1489427924.3192169666, -1.1299, -0.0293,  0.1016, -8.9264, -3.9520, -3.8452
1489427924.3192880154,1489427924.3216938972, -1.1299, -0.0293,  0.1016, -8.9264, -3.9520, -3.8452
1489427924.3217658997,1489427924.3240559101, -1.1299, -0.0293,  0.1016, -8.9264, -3.9520, -3.8452
1489427924.3241269588,1489427924.3264119625, -1.1299, -0.0293,  0.1016, -8.9264, -3.9520, -3.8452
1489427924.3264830112,1489427924.3287630081, -1.1299, -0.0293,  0.1016, -8.3923, -4.5319, -3.5553
1489427924.3288331032,1489427924.3311710358, -1.1299, -0.0366,  0.1172, -8.3923, -4.5319, -3.5553
1489427924.3312408924,1489427924.3336460590, -1.1160, -0.0366,  0.1172, -8.3923, -4.5319, -3.5553
1489427924.3337171078,1489427924.3361148834, -1.1160, -0.0366,  0.1172, -8.3923, -4.5319, -3.5553
1489427924.3362929821,1489427924.3387060165, -1.1160, -0.0366,  0.1172, -7.4463, -4.4098, -3.2349
1489427924.3387761116,1489427924.3411920071, -1.1160, -0.0366,  0.1172, -7.4463, -4.4098, -3.2349
1489427924.3412621021,1489427924.3436670303, -1.1160, -0.0366,  0.1172, -7.4463, -4.4098, -3.2349
1489427924.3437368870,1489427924.3461399078, -1.1160, -0.0366,  0.1172, -7.4463, -4.4098, -3.2349
1489427924.3462100029,1489427924.3486130238, -1.1160, -0.0366,  0.1172, -7.4463, -4.4098, -3.0670
1489427924.3486840725,1489427924.3511309624, -1.1160, -0.0352,  0.1611, -6.7902, -4.1656, -3.0670
1489427924.3512020111,1489427924.3536090851, -1.1035, -0.0352,  0.1611, -6.7902, -4.1656, -3.0670
1489427924.3536789417,1489427924.3561539650, -1.1035, -0.0352,  0.1611, -6.7902, -4.1656, -3.0670
1489427924.3562250137,1489427924.3586230278, -1.1035, -0.0352,  0.1611, -6.7902, -4.1656, -3.0670
1489427924.3586940765,1489427924.3611280918, -1.1035, -0.0352,  0.1611, -6.1188, -4.3182, -3.2043
1489427924.3611979485,1489427924.3635640144, -1.1035, -0.0352,  0.1611, -6.1188, -4.3182, -3.2043
1489427924.3636341095,1489427924.3660519123, -1.1035, -0.0352,  0.1611, -6.1188, -4.3182, -3.2043
1489427924.3661220074,1489427924.3685319424, -1.1035, -0.0352,  0.1611, -6.1188, -4.3182, -3.2043
1489427924.3686010838,1489427924.3710229397, -1.1035, -0.0352,  0.1035, -4.8828, -4.7913, -3.0212
1489427924.3710930347,1489427924.3733758926, -1.1226, -0.0298,  0.1035, -4.8828, -4.7913, -3.0212
1489427924.3734459877,1489427924.3757290840, -1.1226, -0.0298,  0.1035, -4.8828, -4.7913, -3.0212
1489427924.3757998943,1489427924.3780889511, -1.1226, -0.0298,  0.1035, -4.8828, -4.7913, -3.0212
1489427924.3781590462,1489427924.3804340363, -1.1226, -0.0298,  0.1035, -4.8828, -4.7913, -2.9144
1489427924.3805038929,1489427924.3828339577, -1.1226, -0.0298,  0.1035, -5.2338, -5.2795, -2.9144
1489427924.3829050064,1489427924.3851830959, -1.1226, -0.0298,  0.1035, -5.2338, -5.2795, -2.9144
1489427924.3852529526,1489427924.3875339031, -1.1226, -0.0298,  0.1035, -5.2338, -5.2795, -2.9144
1489427924.3876039982,1489427924.3898859024, -1.1226, -0.0298,  0.1035, -5.2338, -5.2795, -2.9144
1489427924.3899559975,1489427924.3923881054, -1.1355, -0.0020,  0.0850, -6.2866, -5.5695, -2.7466
1489427924.3924601078,1489427924.3948690891, -1.1355, -0.0020,  0.0850, -6.2866, -5.5695, -2.7466
1489427924.3949398994,1489427924.3973479271, -1.1355, -0.0020,  0.0850, -6.2866, -5.5695, -2.7466
1489427924.3974180222,1489427924.3998239040, -1.1355, -0.0020,  0.0850, -6.2866, -5.5695, -2.7466
1489427924.3998939991,1489427924.4023559093, -1.1355, -0.0020,  0.0850, -7.6447, -6.2714, -2.5024
1489427924.4024260044,1489427924.4048340321, -1.1355, -0.0020,  0.0850, -7.6447, -6.2714, -2.5024
1489427924.4049038887,1489427924.4073069096, -1.1355, -0.0020,  0.0850, -7.6447, -6.2714, -2.5024
1489427924.4073770046,1489427924.4097890854, -1.1355, -0.0020,  0.0850, -7.6447, -6.2714, -2.5024
1489427924.4098598957,1489427924.4122691154, -1.1440, -0.0332,  0.0706, -7.6447, -6.7749, -2.0447
1489427924.4123399258,1489427924.4147460461, -1.1440, -0.0332,  0.0706, -8.9569, -6.7749, -2.0447
1489427924.4148170948,1489427924.4172289371, -1.1440, -0.0332,  0.0706, -8.9569, -6.7749, -2.0447
1489427924.4172999859,1489427924.4197010994, -1.1440, -0.0332,  0.0706, -8.9569, -6.7749, -2.0447
1489427924.4197709560,1489427924.4221310616, -1.1440, -0.0332,  0.0706, -8.9569, -6.7749, -2.0447
1489427924.4222021103,1489427924.4244849682, -1.1440, -0.0332,  0.0706, -8.5144, -7.3242, -1.7853
1489427924.4245550632,1489427924.4268391132, -1.1440, -0.0332,  0.0706, -8.5144, -7.3242, -1.7853
1489427924.4269089699,1489427924.4291930199, -1.1440, -0.0332,  0.0706, -8.5144, -7.3242, -1.7853
1489427924.4292631149,1489427924.4315838814, -1.1440, -0.0261,  0.0967, -8.5144, -7.3242, -1.7853
1489427924.4316549301,1489427924.4340600967, -1.1313, -0.0261,  0.0967, -7.1869, -7.6752, -1.2360
1489427924.4341299534,1489427924.4365398884, -1.1313, -0.0261,  0.0967, -7.1869, -7.6752, -1.2360
1489427924.4366099834,1489427924.4390180111, -1.1313, -0.0261,  0.0967, -7.1869, -7.6752, -1.2360
1489427924.4392030239,1489427924.4416239262, -1.1313, -0.0261,  0.0967, -7.1869, -7.6752, -1.2360
1489427924.4416940212,1489427924.4440970421, -1.1313, -0.0261,  0.0967, -7.1869, -8.6212, -1.0681
1489427924.4441668987,1489427924.4465730190, -1.1313, -0.0261,  0.0967, -6.4392, -8.6212, -1.0681
1489427924.4466440678,1489427924.4490499496, -1.1313, -0.0261,  0.0967, -6.4392, -8.6212, -1.0681
1489427924.4491200447,1489427924.4515640736, -1.1313, -0.0193,  0.1233, -6.4392, -8.6212, -1.0681
1489427924.4516360760,1489427924.4540350437, -1.1548, -0.0193,  0.1233, -6.4392, -8.6212, -1.0376
1489427924.4541070461,1489427924.4565150738, -1.1548, -0.0193,  0.1233, -6.0577, -9.3536, -1.0376
1489427924.4565858841,1489427924.4589910507, -1.1548, -0.0193,  0.1233, -6.0577, -9.3536, -1.0376
1489427924.4590620995,1489427924.4614748955, -1.1548, -0.0193,  0.1233, -6.0577, -9.3536, -1.0376
1489427924.4615468979,1489427924.4639549255, -1.1548, -0.0193,  0.1233, -6.0577, -9.3536, -1.0376
1489427924.4640269279,1489427924.4664340019, -1.1548, -0.0193,  0.1233, -5.7678, -9.8114, -1.3580
1489427924.4665060043,1489427924.4689149857, -1.1548, -0.0193,  0.1233, -5.7678, -9.8114, -1.3580
1489427924.4689869881,1489427924.4713819027, -1.1548,  0.0066,  0.1230, -5.7678, -9.8114, -1.3580
1489427924.4714550972,1489427924.4737401009, -1.1665,  0.0066,  0.1230, -5.7678, -9.8114, -1.3580
1489427924.4738109112,1489427924.4760980606, -1.1665,  0.0066,  0.1230, -7.1869,-10.9863, -0.5188
1489427924.4761741161,1489427924.4784550667, -1.1665,  0.0066,  0.1230, -7.1869,-10.9863, -0.5188
1489427924.4785308838,1489427924.4808220863, -1.1665,  0.0066,  0.1230, -7.1869,-10.9863, -0.5188
1489427924.4809501171,1489427924.4838950634, -1.1665,  0.0066,  0.1230, -7.1869,-10.9863, -0.5188
1489427924.4839870930,1489427924.4862649441, -1.1665,  0.0066,  0.1230, -7.1869,-11.0016,  1.2512
1489427924.4863400459,1489427924.4886200428, -1.1665,  0.0066,  0.1230, -8.7128,-11.0016,  1.2512
1489427924.4886960983,1489427924.4909911156, -1.1665,  0.0066,  0.0854, -8.7128,-11.0016,  1.2512
1489427924.4910659790,1489427924.4933478832, -1.1333,  0.0088,  0.0854, -8.7128,-11.0016,  1.2512
1489427924.4934239388,1489427924.4957048893, -1.1333,  0.0088,  0.0854, -8.7128,-11.0016,  1.2512
1489427924.4957790375,1489427924.4980599880, -1.1333,  0.0088,  0.0854,-10.6964,-12.1613,  1.9684
1489427924.4981360435,1489427924.5004169941, -1.1333,  0.0088,  0.0854,-10.6964,-12.1613,  1.9684
1489427924.5004940033,1489427924.5027809143, -1.1333,  0.0088,  0.0854,-10.6964,-12.1613,  1.9684
1489427924.5028579235,1489427924.5051360130, -1.1333,  0.0088,  0.0854,-10.6964,-12.1613,  1.9684
1489427924.5052130222,1489427924.5074930191, -1.1333,  0.0088,  0.0854,-14.6027,-13.6261,  2.0599
1489427924.5075700283,1489427924.5098540783, -1.1333,  0.0088,  0.0854,-12.6648,-13.6261,  2.0599
1489427924.5099310875,1489427924.5122129917, -1.1414,  0.0093,  0.0747,-12.6648,-13.6261,  2.0599
1489427924.5122900009,1489427924.5145680904, -1.1414,  0.0093,  0.0747,-12.6648,-13.6261,  2.0599
1489427924.5146460533,1489427924.5169239044, -1.1414,  0.0093,  0.0747,-12.6648,-13.6261,  2.0599
1489427924.5170009136,1489427924.5192830563, -1.1414,  0.0093,  0.0747,-14.7705,-15.2740,  1.2360
1489427924.5193600655,1489427924.5216820240, -1.1414,  0.0093,  0.0747,-14.7705,-15.2740,  1.2360
1489427924.5217590332,1489427924.5240359306, -1.1414,  0.0093,  0.0747,-14.7705,-15.2740,  1.2360
1489427924.5241129398,1489427924.5263929367, -1.1414,  0.0093,  0.0747,-14.7705,-15.2740,  1.2360
1489427924.5264699459,1489427924.5287458897, -1.1414,  0.0093,  0.0747,-14.7705,-16.8915,  0.2594
1489427924.5288240910,1489427924.5311670303, -1.1414, -0.0532,  0.0771,-14.7858,-16.8915,  0.2594
1489427924.5312449932,1489427924.5336549282, -1.1704, -0.0137,  0.0771,-14.7858,-16.8915,  0.2594
1489427924.5337328911,1489427924.5361409187, -1.1704, -0.0137,  0.0771,-14.7858,-16.8915,  0.2594
1489427924.5362188816,1489427924.5386331081, -1.1704, -0.0137,  0.0771,-14.7858,-16.8915, -0.7172
1489427924.5388240814,1489427924.5412468910, -1.1704, -0.0137,  0.0771,-16.2201,-18.1885, -0.7172
1489427924.5413250923,1489427924.5437350273, -1.1704, -0.0137,  0.0771,-16.2201,-18.1885, -0.7172
1489427924.5438120365,1489427924.5462210178, -1.1704, -0.0137,  0.0771,-16.2201,-18.1885, -0.7172
1489427924.5462980270,1489427924.5487039089, -1.1704, -0.0137,  0.0771,-16.2201,-18.1885, -0.7172
1489427924.5487809181,1489427924.5511980057, -1.1704, -0.0137,  0.0457,-23.1781,-21.0419, -1.6937
1489427924.5512750149,1489427924.5536849499, -1.1621,  0.0129,  0.0457,-23.1781,-21.0419, -1.6937
1489427924.5537619591,1489427924.5561730862, -1.1621,  0.0129,  0.0457,-23.1781,-21.0419, -1.6937
1489427924.5562500954,1489427924.5586600304, -1.1621,  0.0129,  0.0457,-23.1781,-21.0419, -1.6937
1489427924.5587370396,1489427924.5611510277, -1.1621,  0.0129,  0.0457,-27.4200,-24.4751, -4.4250
1489427924.5612270832,1489427924.5635170937, -1.1621,  0.0129,  0.0457,-27.4200,-24.4751, -4.4250
1489427924.5635929108,1489427924.5658800602, -1.1621,  0.0129,  0.0457,-27.4200,-24.4751, -4.4250
1489427924.5659561157,1489427924.5682380199, -1.1621,  0.0129,  0.0457,-27.4200,-24.4751, -4.4250
1489427924.5683140755,1489427924.5705969334, -1.1621,  0.0129,  0.0457,-27.4200,-28.3813,-10.2081
1489427924.5706748962,1489427924.5730860233, -1.1597,  0.0317,  0.0552,-32.7148,-27.8168,-10.2081
1489427924.5731639862,1489427924.5755789280, -1.1597,  0.0317,  0.0552,-32.7148,-27.8168,-10.2081
1489427924.5756559372,1489427924.5780661106, -1.1597,  0.0317,  0.0552,-32.7148,-27.8168,-10.2081
1489427924.5781440735,1489427924.5805521011, -1.1597,  0.0317,  0.0552,-32.7148,-27.8168,-10.2081
1489427924.5806300640,1489427924.5830531120, -1.1597,  0.0317,  0.0552,-39.0167,-31.5857,-16.5405
1489427924.5831310749,1489427924.5855410099, -1.1597,  0.0317,  0.0552,-39.0167,-31.5857,-16.5405
1489427924.5856199265,1489427924.5880339146, -1.1597,  0.0317,  0.0552,-39.0167,-31.5857,-16.5405
1489427924.5881121159,1489427924.5905239582, -1.1597,  0.0317,  0.0552,-39.0167,-31.5857,-16.5405
1489427924.5906019211,1489427924.5930249691, -1.2344,  0.1118,  0.0168,-42.7094,-36.3770,-26.3367
1489427924.5931038857,1489427924.5955080986, -1.2344,  0.1118,  0.0168,-42.7094,-36.3770,-26.3367
1489427924.5955870152,1489427924.5979919434, -1.2344,  0.1118,  0.0168,-42.7094,-36.3770,-26.3367
1489427924.5980710983,1489427924.6004779339, -1.2344,  0.1118,  0.0168,-42.7094,-36.3770,-26.3367
1489427924.6005580425,1489427924.6029779911, -1.2344,  0.1118,  0.0168,-48.7671,-41.1835,-37.4756
1489427924.6030569077,1489427924.6054649353, -1.2344,  0.1118,  0.0168,-48.7671,-41.1835,-37.4756
1489427924.6055440903,1489427924.6079568863, -1.2344,  0.1118,  0.0168,-48.7671,-41.1835,-37.4756
1489427924.6080350876,1489427924.6104409695, -1.2344,  0.1118,  0.0168,-48.7671,-41.1835,-37.4756
1489427924.6105189323,1489427924.6128370762, -1.3440,  0.1377, -0.0928,-48.7671,-41.1835,-48.7366
1489427924.6129150391,1489427924.6152029037, -1.3440,  0.1377, -0.0928,-52.8870,-46.4783,-48.7366
1489427924.6152820587,1489427924.6175720692, -1.3440,  0.1377, -0.0928,-52.8870,-46.4783,-48.7366
1489427924.6176509857,1489427924.6199350357, -1.3440,  0.1377, -0.0928,-52.8870,-46.4783,-48.7366
1489427924.6200129986,1489427924.6223340034, -1.3440,  0.1377, -0.0928,-52.8870,-46.4783,-48.7366
1489427924.6224129200,1489427924.6246919632, -1.3440,  0.1377, -0.0928,-58.0444,-50.1251,-62.1948
1489427924.6247711182,1489427924.6270539761, -1.3440,  0.1377, -0.0928,-58.0444,-50.1251,-62.1948
1489427924.6271328926,1489427924.6294100285, -1.3440,  0.1377, -0.0928,-58.0444,-50.1251,-62.1948
1489427924.6294879913,1489427924.6319329739, -1.4690,  0.0361, -0.2517,-58.0444,-50.1251,-62.1948
1489427924.6320118904,1489427924.6344110966, -1.4910,  0.0361, -0.2517,-61.9507,-52.4750,-73.5626
1489427924.6344909668,1489427924.6368920803, -1.4910,  0.0361, -0.2517,-60.8826,-52.4750,-73.5626
1489427924.6369700432,1489427924.6393690109, -1.4910,  0.0361, -0.2517,-60.8826,-52.4750,-73.5626
1489427924.6394488811,1489427924.6418540478, -1.4910,  0.0361, -0.2517,-60.8826,-52.4750,-73.5626
1489427924.6420440674,1489427924.6444470882, -1.4910,  0.0361, -0.2517,-60.8826,-52.4750,-85.4034
1489427924.6445260048,1489427924.6469240189, -1.4910,  0.0361, -0.2517,-56.8085,-51.5442,-85.4034
1489427924.6470029354,1489427924.6493980885, -1.4910,  0.0361, -0.2517,-56.8085,-51.5442,-85.4034
1489427924.6494779587,1489427924.6519179344, -1.9285, -0.3359, -0.4248,-56.8085,-51.5442,-85.4034
1489427924.6519970894,1489427924.6543960571, -1.9082, -0.3359, -0.4248,-56.8085,-51.5442,-85.4034
1489427924.6544730663,1489427924.6568660736, -1.9082, -0.3359, -0.4248,-43.2281,-48.2483,-100.3418
1489427924.6569430828,1489427924.6593370438, -1.9082, -0.3359, -0.4248,-43.2281,-48.2483,-100.3418
1489427924.6594150066,1489427924.6618208885, -1.9082, -0.3359, -0.4248,-43.2281,-48.2483,-100.3418
1489427924.6618990898,1489427924.6642959118, -1.9082, -0.3359, -0.4248,-43.2281,-48.2483,-100.3418
1489427924.6643741131,1489427924.6667690277, -1.9082, -0.3359, -0.4248,-13.6108,-45.8221,-120.1935
1489427924.6668479443,1489427924.6692430973, -1.9082, -0.3359, -0.4248,-13.6108,-45.8221,-120.1935
1489427924.6693210602,1489427924.6717290878, -1.9082, -0.5212, -0.6462,-13.6108,-45.8221,-120.1935
1489427924.6718080044,1489427924.6742041111, -1.9214, -0.5212, -0.6462,-13.6108,-45.8221,-120.1935
1489427924.6742820740,1489427924.6766829491, -1.9214, -0.5212, -0.6462, 25.4517,-42.3737,-136.2610
1489427924.6767609119,1489427924.6791579723, -1.9214, -0.5212, -0.6462, 25.4364,-42.3737,-136.2610
1489427924.6792359352,1489427924.6816489697, -1.9214, -0.5212, -0.6462, 25.4364,-42.3737,-136.2610
1489427924.6817290783,1489427924.6841371059, -1.9214, -0.5212, -0.6462, 25.4364,-42.3737,-136.2610
1489427924.6842160225,1489427924.6866209507, -1.9214, -0.5212, -0.6462, 25.4364,-42.3737,-128.8605
1489427924.6867001057,1489427924.6891059875, -1.9214, -0.5212, -0.6462, 48.5382,-36.5753,-128.8605
1489427924.6891849041,1489427924.6916089058, -1.9214, -0.3337, -0.4824, 48.5382,-36.5753,-128.8605
1489427924.6916871071,1489427924.6940929890, -2.1311, -0.3420, -0.4824, 48.5382,-36.5753,-128.8605
1489427924.6941719055,1489427924.6965808868, -2.1311, -0.3420, -0.4824, 48.5382,-36.5753,-128.8605
1489427924.6966590881,1489427924.6990649700, -2.1311, -0.3420, -0.4824, 42.6483,-30.0140,-128.9062
1489427924.6991438866,1489427924.7015628815, -2.1311, -0.3420, -0.4824, 42.6483,-30.0140,-128.9062
1489427924.7016420364,1489427924.7040460110, -2.1311, -0.3420, -0.4824, 42.6483,-30.0140,-128.9062
1489427924.7041249275,1489427924.7065289021, -2.1311, -0.3420, -0.4824, 42.6483,-30.0140,-128.9062
1489427924.7066090107,1489427924.7090148926, -2.1311, -0.3420, -0.4824, 38.9862,-24.4904,-126.5869
1489427924.7090940475,1489427924.7115499973, -2.1311, -0.0295, -0.2742, 38.9862,-24.4904,-126.5869
1489427924.7116289139,1489427924.7140378952, -1.8372, -0.0356, -0.2742, 38.9862,-24.4904,-126.5869
1489427924.7141170502,1489427924.7165229321, -1.8372, -0.0356, -0.2742, 38.9862,-24.4904,-126.5869
1489427924.7166020870,1489427924.7190120220, -1.8372, -0.0356, -0.2742, 31.1737,-20.7825,-125.3815
1489427924.7190899849,1489427924.7215139866, -1.8372, -0.0356, -0.2742, 27.4658,-20.7825,-125.3815
1489427924.7215940952,1489427924.7238769531, -1.8372, -0.0356, -0.2742, 27.4658,-20.7825,-125.3815
1489427924.7239561081,1489427924.7262361050, -1.8372, -0.0356, -0.2742, 27.4658,-20.7825,-125.3815
1489427924.7263150215,1489427924.7286000252, -1.8372, -0.0356, -0.2742, 27.4658,-20.7825,-125.3815
1489427924.7286789417,1489427924.7309889793, -1.8372, -0.0356, -0.3992, 13.4277,-10.3607,-141.3574
1489427924.7310669422,1489427924.7341210842, -1.6392,  0.2581, -0.3755, 13.4277,-10.3607,-141.3574
1489427924.7342140675,1489427924.7370440960, -1.6392,  0.2581, -0.3755, 13.4277,-10.3607,-141.3574
1489427924.7371339798,1489427924.7419490814, -1.6392,  0.2581, -0.3755, -8.8959,  6.6223,-134.9640
1489427924.7420349121,1489427924.7445540428, -1.6392,  0.2581, -0.3755, -8.8959,  6.6223,-134.9640
1489427924.7446389198,1489427924.7480421066, -1.6392,  0.2581, -0.3755, -8.8959,  6.6223,-134.9640
1489427924.7481269836,1489427924.7529480457, -1.6392,  0.8875, -0.2810,-50.7507, 23.5138,-120.0562
1489427924.7531681061,1489427924.7555658817, -1.3064,  0.8875, -0.2810,-50.7507, 23.5138,-120.0562
1489427924.7556540966,1489427924.7579329014, -1.3064,  0.8875, -0.2810,-50.7507, 23.5138,-120.0562
1489427924.7580130100,1489427924.7602949142, -1.3064,  0.8875, -0.2810,-50.7507, 23.5138,-120.0562
1489427924.7603731155,1489427924.7627010345, -1.3064,  0.8875, -0.2810,-88.5010, 41.8701,-104.7821
1489427924.7627820969,1489427924.7650580406, -1.3064,  0.8875, -0.2810,-88.5010, 41.8701,-104.7821
1489427924.7651379108,1489427924.7674169540, -1.3064,  0.8875, -0.2810,-88.5010, 41.8701,-104.7821
1489427924.7674970627,1489427924.7697830200, -1.3064,  0.8875, -0.2810,-88.5010, 41.8701,-104.7821
1489427924.7698628902,1489427924.7721788883, -0.8909,  0.9204, -0.2393,-114.0442, 59.9060,-86.5326
1489427924.7722599506,1489427924.7745480537, -0.8909,  0.9204, -0.2393,-114.0442, 59.9060,-86.5326
1489427924.7746279240,1489427924.7769100666, -0.8909,  0.9204, -0.2393,-114.0442, 59.9060,-86.5326
1489427924.7769908905,1489427924.7792661190, -0.8909,  0.9204, -0.2393,-114.0442, 59.9060,-86.5326
1489427924.7793459892,1489427924.7816350460, -0.8909,  0.9204, -0.2393,-114.0442, 59.9060,-63.0951
1489427924.7817149162,1489427924.7839980125, -0.8909,  0.9204, -0.2393,-128.2349, 75.2106,-64.1479
1489427924.7840778828,1489427924.7863650322, -0.8909,  0.9204, -0.2393,-128.2349, 75.2106,-64.1479
1489427924.7864460945,1489427924.7887289524, -0.8909,  0.9204, -0.2393,-128.2349, 75.2106,-64.1479
1489427924.7888090611,1489427924.7913091183, -0.8909,  0.9204, -0.2393,-128.2349, 75.2106,-64.1479
1489427924.7913899422,1489427924.7936799526, -0.8347,  0.8843, -0.2405,-117.9657, 84.7626,-41.4429
1489427924.7937591076,1489427924.7960391045, -0.8347,  0.8843, -0.2405,-117.9657, 84.7626,-41.4429
1489427924.7961189747,1489427924.7983980179, -0.8347,  0.8843, -0.2405,-117.9657, 84.7626,-41.4429
1489427924.7984778881,1489427924.8007578850, -0.8347,  0.8843, -0.2405,-117.9657, 84.7626,-41.4429
1489427924.8008379936,1489427924.8031270504, -0.8347,  0.8843, -0.2405,-117.9657, 92.5751,-22.5372
1489427924.8032069206,1489427924.8054881096, -0.8347,  0.8843, -0.2405,-96.8170, 92.0410,-22.5372
1489427924.8055679798,1489427924.8078548908, -0.8347,  0.8843, -0.2405,-96.8170, 92.0410,-22.5372
1489427924.8079340458,1489427924.8102130890, -0.8347,  0.8843, -0.2405,-96.8170, 92.0410,-22.5372
1489427924.8102929592,1489427924.8125870228, -0.7847,  0.9773, -0.2175,-96.8170, 92.0410,-22.5372
1489427924.8126659393,1489427924.8149468899, -0.7847,  0.9773, -0.2175,-81.2225, 99.7925,  0.4120
1489427924.8150238991,1489427924.8173089027, -0.7847,  0.9773, -0.2175,-81.2225, 99.7925,  0.4120
1489427924.8173859119,1489427924.8196671009, -0.7847,  0.9773, -0.2175,-81.2225, 99.7925,  0.4120
1489427924.8197441101,1489427924.8220689297, -0.7847,  0.9773, -0.2175,-81.2225, 99.7925,  0.4120
1489427924.8221459389,1489427924.8244249821, -0.7847,  0.9773, -0.2175,-81.2225,104.9042, 25.6805
1489427924.8245038986,1489427924.8267900944, -0.7847,  0.9773, -0.2175,-66.1011,104.9042, 25.6805
1489427924.8268690109,1489427924.8291480541, -0.7847,  0.9773, -0.2175,-66.1011,104.9042, 25.6805
1489427924.8292269707,1489427924.8316199780, -0.7847,  0.9773, -0.0894,-66.1011,104.9042, 25.6805
1489427924.8317019939,1489427924.8341119289, -0.8145,  0.9480, -0.0894,-66.1011,104.9042, 25.6805
1489427924.8341929913,1489427924.8366019726, -0.8145,  0.9480, -0.0894,-50.8728,108.7494, 50.2472
1489427924.8366820812,1489427924.8390989304, -0.8145,  0.9480, -0.0894,-50.8728,108.7494, 50.2472
1489427924.8391790390,1489427924.8416049480, -0.8145,  0.9480, -0.0894,-50.8728,108.7494, 50.2472
1489427924.8416841030,1489427924.8440968990, -0.8145,  0.9480, -0.0894,-50.8728,108.7494, 50.2472
1489427924.8441760540,1489427924.8465859890, -0.8145,  0.9480, -0.0894,-35.9955,110.1227, 73.0896
1489427924.8466670513,1489427924.8490738869, -0.8145,  0.9480, -0.0894,-35.9955,110.1227, 73.0896
1489427924.8491539955,1489427924.8515820503, -0.8145,  0.9480,  0.0242,-35.9955,110.1227, 73.0896
1489427924.8517849445,1489427924.8541960716, -0.9172,  0.8848,  0.0242,-35.9955,110.1227, 73.0896
1489427924.8542768955,1489427924.8566849232, -0.9172,  0.8848,  0.0242,-20.0500,110.1837, 94.0399
1489427924.8567650318,1489427924.8591830730, -0.9172,  0.8848,  0.0242,-20.0500,110.1837, 94.0399
1489427924.8592638969,1489427924.8616759777, -0.9172,  0.8848,  0.0242,-20.0500,110.1837, 94.0399
1489427924.8617548943,1489427924.8641619682, -0.9172,  0.8848,  0.0242,-20.0500,110.1837, 94.0399
1489427924.8642420769,1489427924.8666560650, -0.9172,  0.8848,  0.0242,-20.0500,106.2775,111.8011
1489427924.8667359352,1489427924.8691439629, -0.9172,  0.8848,  0.0242, -4.1046,108.4137,111.8011
1489427924.8692219257,1489427924.8716189861, -0.9172,  0.8848,  0.2576, -4.1046,108.4137,111.8011
1489427924.8716959953,1489427924.8739778996, -1.0142,  0.8757,  0.2576, -4.1046,108.4137,111.8011
1489427924.8740539551,1489427924.8763370514, -1.0142,  0.8757,  0.2576, -4.1046,108.4137,111.8011
1489427924.8764131069,1489427924.8787009716, -1.0142,  0.8757,  0.2576, 10.3455,104.0649,127.4567
1489427924.8787789345,1489427924.8810760975, -1.0142,  0.8757,  0.2576, 10.3455,104.0649,127.4567
1489427924.8811559677,1489427924.8835630417, -1.0142,  0.8757,  0.2576, 10.3455,104.0649,127.4567
1489427924.8836419582,1489427924.8860549927, -1.0142,  0.8757,  0.2576, 10.3455,104.0649,127.4567
1489427924.8861339092,1489427924.8885369301, -1.0142,  0.8757,  0.2576, 15.5945, 99.5331,142.8375
1489427924.8886160851,1489427924.8910388947, -1.0142,  0.8757,  0.2576, 15.5945, 99.5331,142.8375
1489427924.8911190033,1489427924.8935279846, -1.1096,  0.9111,  0.3547, 15.5945, 99.5331,142.8375
1489427924.8936069012,1489427924.8960130215, -1.1096,  0.9111,  0.3547, 15.5945, 99.5331,142.8375
1489427924.8960919380,1489427924.8985030651, -1.1096,  0.9111,  0.3547, 15.5945, 94.7418,157.6691
1489427924.8985819817,1489427924.9009931087, -1.1096,  0.9111,  0.3547, 11.0474, 94.7418,157.6691
1489427924.9010729790,1489427924.9034800529, -1.1096,  0.9111,  0.3547, 11.0474, 94.7418,157.6691
1489427924.9035589695,1489427924.9059700966, -1.1096,  0.9111,  0.3547, 11.0474, 94.7418,157.6691
1489427924.9060499668,1489427924.9084589481, -1.1096,  0.9111,  0.3547, 11.0474, 94.7418,169.3878
1489427924.9085381031,1489427924.9109599590, -1.1096,  0.9111,  0.3547,  3.2196, 89.9658,170.7458
1489427924.9110360146,1489427924.9134399891, -1.1943,  0.8147,  0.3403,  3.2196, 89.9658,170.7458
1489427924.9135169983,1489427924.9159250259, -1.1943,  0.8147,  0.3403,  3.2196, 89.9658,170.7458
1489427924.9160010815,1489427924.9184079170, -1.1943,  0.8147,  0.3403,  3.2196, 89.9658,170.7458
1489427924.9184839725,1489427924.9208910465, -1.1943,  0.8147,  0.3403, -4.9744, 84.8999,182.2510
1489427924.9210259914,1489427924.9233169556, -1.1943,  0.8147,  0.3403, -4.9744, 84.8999,182.2510
1489427924.9233930111,1489427924.9256839752, -1.1943,  0.8147,  0.3403, -4.9744, 84.8999,182.2510
1489427924.9257609844,1489427924.9280459881, -1.1943,  0.8147,  0.3403, -4.9744, 84.8999,182.2510
1489427924.9281220436,1489427924.9304130077, -1.1943,  0.8147,  0.3403, -8.8806, 79.0405,191.9556
1489427924.9304900169,1489427924.9327759743, -1.2925,  0.6929,  0.3308, -9.6130, 79.0405,191.9556
1489427924.9328539371,1489427924.9351329803, -1.2925,  0.6929,  0.3308, -9.6130, 79.0405,191.9556
1489427924.9352109432,1489427924.9375000000, -1.2925,  0.6929,  0.3308, -9.6130, 79.0405,191.9556
1489427924.9375760555,1489427924.9398529530, -1.2925,  0.6929,  0.3308, -9.6130, 79.0405,191.9556
1489427924.9399290085,1489427924.9423348904, -1.2925,  0.6929,  0.3308,-17.9138, 71.9299,199.2035
1489427924.9424149990,1489427924.9448289871, -1.2925,  0.6929,  0.3308,-17.9138, 71.9299,199.2035
1489427924.9449069500,1489427924.9473159313, -1.2925,  0.6929,  0.3308,-17.9138, 71.9299,199.2035
1489427924.9473960400,1489427924.9498109818, -1.2925,  0.6929,  0.3308,-17.9138, 71.9299,199.2035
1489427924.9498910904,1489427924.9523620605, -1.2925,  0.4067,  0.2080,-23.4528, 62.9883,204.7424
1489427924.9524409771,1489427924.9548490047, -1.4792,  0.4067,  0.2080,-23.4528, 62.9883,204.7424
1489427924.9550468922,1489427924.9574649334, -1.4792,  0.4067,  0.2080,-23.4528, 62.9883,204.7424
1489427924.9575440884,1489427924.9599540234, -1.4792,  0.4067,  0.2080,-23.4528, 62.9883,204.7424
1489427924.9600329399,1489427924.9624550343, -1.4792,  0.4067,  0.2080,-32.8979, 58.1360,217.7734
1489427924.9625329971,1489427924.9649500847, -1.4792,  0.4067,  0.2080,-32.8979, 58.1360,217.7734
1489427924.9650299549,1489427924.9674420357, -1.4792,  0.4067,  0.2080,-32.8979, 58.1360,217.7734
1489427924.9675209522,1489427924.9699320793, -1.4792,  0.4067,  0.2080,-32.8979, 58.1360,217.7734
1489427924.9700100422,1489427924.9724290371, -1.7292,  0.0764,  0.0752,-32.8979, 60.1349,226.1505
1489427924.9725089073,1489427924.9749200344, -1.6992,  0.0764,  0.0752,-61.7828, 60.1349,226.1505
1489427924.9749989510,1489427924.9774119854, -1.6992,  0.0764,  0.0752,-61.7828, 60.1349,226.1505
1489427924.9774909019,1489427924.9799029827, -1.6992,  0.0764,  0.0752,-61.7828, 60.1349,226.1505
1489427924.9799809456,1489427924.9823460579, -1.6992,  0.0764,  0.0752,-61.7828, 60.1349,222.2443
1489427924.9824259281,1489427924.9852609634, -1.6992,  0.0764,  0.0752,-78.3234, 58.0902,222.3206
1489427924.9853429794,1489427924.9876220226, -1.6992,  0.0764,  0.0752,-78.3234, 58.0902,222.3206
1489427924.9876999855,1489427924.9899818897, -1.6992,  0.0764,  0.0752,-78.3234, 58.0902,222.3206
1489427924.9900610447,1489427924.9925079346, -1.5742, -0.2471,  0.0684,-78.3234, 58.0902,222.3206
1489427924.9925899506,1489427924.9948709011, -1.6123, -0.2471,  0.0684,-77.6062, 56.5491,218.1091
1489427924.9949519634,1489427924.9972410202, -1.6123, -0.2471,  0.0684,-77.6062, 56.5491,218.1091
1489427924.9973208904,1489427924.9995989799, -1.6123, -0.2471,  0.0684,-77.6062, 56.5491,218.1091
1489427924.9996790886,1489427925.0020439625, -1.6123, -0.2471,  0.0684,-77.6062, 56.5491,218.1091
1489427925.0021240711,1489427925.0044069290, -1.6123, -0.2471,  0.0684,-73.7000, 53.3600,213.2874
1489427925.0044870377,1489427925.0067660809, -1.6123, -0.2471,  0.0684,-72.9980, 53.3600,213.2874
1489427925.0068459511,1489427925.0091290474, -1.6123, -0.2471,  0.0684,-72.9980, 53.3600,213.2874
1489427925.0092089176,1489427925.0115389824, -1.6123, -0.2471,  0.1309,-72.9980, 53.3600,213.2874
1489427925.0116178989,1489427925.0138969421, -1.5662, -0.5056,  0.1348,-72.9980, 53.3600,213.2874
1489427925.0139749050,1489427925.0162630081, -1.5662, -0.5056,  0.1348,-64.7278, 47.6837,206.4667
1489427925.0163419247,1489427925.0186231136, -1.5662, -0.5056,  0.1348,-64.7278, 47.6837,206.4667
1489427925.0187020302,1489427925.0209860802, -1.5662, -0.5056,  0.1348,-64.7278, 47.6837,206.4667
1489427925.0210649967,1489427925.0233509541, -1.5662, -0.5056,  0.1348,-64.7278, 47.6837,206.4667
1489427925.0234289169,1489427925.0257050991, -1.5662, -0.5056,  0.1348,-54.8096, 39.8560,197.7997
1489427925.0257849693,1489427925.0280659199, -1.5662, -0.5056,  0.1348,-54.8096, 39.8560,197.7997
1489427925.0281438828,1489427925.0304179192, -1.5662, -0.5056,  0.1348,-54.8096, 39.8560,197.7997
1489427925.0304970741,1489427925.0328390598, -1.5830, -0.6025,  0.1621,-54.8096, 39.8560,197.7997
1489427925.0329170227,1489427925.0352060795, -1.5830, -0.6025,  0.1621,-54.8096, 39.8560,189.9872
1489427925.0352849960,1489427925.0375669003, -1.5830, -0.6025,  0.1621,-48.0652, 30.0140,187.5000
1489427925.0376451015,1489427925.0399329662, -1.5830, -0.6025,  0.1621,-48.0652, 30.0140,187.5000
1489427925.0400109291,1489427925.0423901081, -1.5830, -0.6025,  0.1621,-48.0652, 30.0140,187.5000
1489427925.0424690247,1489427925.0448760986, -1.5830, -0.6025,  0.1621,-48.0652, 30.0140,187.5000
1489427925.0449550152,1489427925.0473630428, -1.5830, -0.6025,  0.1621,-43.7622, 21.2860,174.1791
1489427925.0474419594,1489427925.0498549938, -1.5830, -0.6025,  0.1621,-43.7622, 21.2860,174.1791
1489427925.0499339104,1489427925.0523459911, -1.5830, -0.7529,  0.0452,-43.7622, 21.2860,174.1791
1489427925.0524260998,1489427925.0548369884, -1.5852, -0.7529,  0.0452,-43.7622, 21.2860,174.1791
1489427925.0549159050,1489427925.0573220253, -1.5852, -0.7529,  0.0452,-41.3818, 15.1520,155.3497
1489427925.0575120449,1489427925.0599238873, -1.5852, -0.7529,  0.0452,-41.3818, 15.1520,155.3497
1489427925.0600039959,1489427925.0624248981, -1.5852, -0.7529,  0.0452,-41.3818, 15.1520,155.3497
1489427925.0625040531,1489427925.0649120808, -1.5852, -0.7529,  0.0452,-41.3818, 15.1520,155.3497
1489427925.0649909973,1489427925.0674018860, -1.5852, -0.7529,  0.0452,-41.3818, 15.1520,129.2114
1489427925.0674810410,1489427925.0698869228, -1.5852, -0.7529,  0.0452,-39.8102, 12.7869,129.2114
1489427925.0699670315,1489427925.0723841190, -1.5852, -1.3867, -0.1853,-39.8102, 12.7869,129.2114
1489427925.0724620819,1489427925.0748760700, -1.4116, -1.3867, -0.1853,-39.8102, 12.7869,129.2114
1489427925.0749530792,1489427925.0773611069, -1.4116, -1.3867, -0.1853,-39.8102, 12.7869,129.2114
1489427925.0774390697,1489427925.0798439980, -1.4116, -1.3867, -0.1853,-35.8276, 10.8337, 99.1211
1489427925.0799219608,1489427925.0822780132, -1.4116, -1.3867, -0.1853,-35.8276, 10.8337, 99.1211
1489427925.0823569298,1489427925.0846409798, -1.4116, -1.3867, -0.1853,-35.8276, 10.8337, 99.1211
1489427925.0847189426,1489427925.0870039463, -1.4116, -1.3867, -0.1853,-35.8276, 10.8337, 99.1211
1489427925.0870819092,1489427925.0893630981, -1.4116, -1.3867, -0.1853,-33.7372,  9.3384, 65.6433
1489427925.0894401073,1489427925.0917809010, -1.4116, -1.3867, -0.2207,-33.7372,  9.3384, 65.6433
1489427925.0918569565,1489427925.0942530632, -1.2693, -1.8269, -0.2207,-33.7372,  9.3384, 65.6433
1489427925.0943291187,1489427925.0967159271, -1.2693, -1.8269, -0.2207,-33.7372,  9.3384, 65.6433
1489427925.0967919827,1489427925.0991818905, -1.2693, -1.8269, -0.2207,-33.7372,  9.3384, 25.2075
1489427925.0992579460,1489427925.1016530991, -1.2693, -1.8269, -0.2207,-33.8287,  8.4534, 25.2075
1489427925.1017301083,1489427925.1040980816, -1.2693, -1.8269, -0.2207,-33.8287,  8.4534, 25.2075
1489427925.1041738987,1489427925.1065471172, -1.2693, -1.8269, -0.2207,-33.8287,  8.4534, 25.2075
1489427925.1066219807,1489427925.1090199947, -1.2693, -1.8269, -0.2207,-33.8287,  8.4534, 25.2075
1489427925.1090970039,1489427925.1115200520, -1.2693, -1.8269, -0.2207,-39.6118,  6.3019,-20.2484
1489427925.1115961075,1489427925.1139690876, -1.3540, -1.9207,  0.0459,-39.6118,  6.3019,-20.2484
1489427925.1140449047,1489427925.1164140701, -1.3540, -1.9207,  0.0459,-39.6118,  6.3019,-20.2484
1489427925.1164889336,1489427925.1188640594, -1.3540, -1.9207,  0.0459,-39.6118,  6.3019,-20.2484
1489427925.1189379692,1489427925.1213688850, -1.3540, -1.9207,  0.0459,-47.8210,  1.8311,-62.6068
1489427925.1214449406,1489427925.1238539219, -1.3540, -1.9207,  0.0459,-47.8210,  1.8311,-62.6068
1489427925.1239299774,1489427925.1263411045, -1.3540, -1.9207,  0.0459,-47.8210,  1.8311,-62.6068
1489427925.1264181137,1489427925.1288270950, -1.3540, -1.9207,  0.0459,-47.8210,  1.8311,-62.6068
1489427925.1289019585,1489427925.1314110756, -1.3540, -1.9207,  0.0459,-59.8450, -3.6621,-99.9451
1489427925.1314890385,1489427925.1337780952, -1.4663, -1.8354,  0.0774,-59.8450, -3.6621,-99.9451
1489427925.1338529587,1489427925.1361370087, -1.4663, -1.8354,  0.0774,-59.8450, -3.6621,-99.9451
1489427925.1362130642,1489427925.1384971142, -1.4663, -1.8354,  0.0774,-59.8450, -3.6621,-99.9451
1489427925.1385719776,1489427925.1408579350, -1.4663, -1.8354,  0.0774,-59.8450, -3.6621,-131.1951
1489427925.1409859657,1489427925.1432659626, -1.4663, -1.8354,  0.0774,-73.5016, -7.7667,-129.8981
1489427925.1433420181,1489427925.1456251144, -1.4663, -1.8354,  0.0774,-73.5016, -7.7667,-129.8981
1489427925.1457009315,1489427925.1479759216, -1.4663, -1.8354,  0.0774,-73.5016, -7.7667,-129.8981
1489427925.1480519772,1489427925.1503329277, -1.4663, -1.8354,  0.0774,-73.5016, -7.7667,-129.8981
1489427925.1504089832,1489427925.1528100967, -1.4038, -0.6191, -0.2219,-87.0819,-11.1847,-145.1721
1489427925.1528890133,1489427925.1552960873, -1.4280, -0.6191, -0.2219,-87.0819,-11.1847,-145.1721
1489427925.1553740501,1489427925.1577761173, -1.4280, -0.6191, -0.2219,-87.0819,-11.1847,-145.1721
1489427925.1578540802,1489427925.1602609158, -1.4280, -0.6191, -0.2219,-87.0819,-11.1847,-145.1721
1489427925.1604459286,1489427925.1628649235, -1.4280, -0.6191, -0.2219,-83.1757,-17.5934,-141.3879
1489427925.1629428864,1489427925.1653549671, -1.4280, -0.6191, -0.2219,-83.2977,-17.5934,-141.3879
1489427925.1654329300,1489427925.1678400040, -1.4280, -0.6191, -0.2219,-83.2977,-17.5934,-141.3879
1489427925.1679179668,1489427925.1703290939, -1.4280, -0.6191, -0.2219,-83.2977,-17.5934,-141.3879
1489427925.1704070568,1489427925.1728260517, -2.4905,  6.2754, -0.2927,-83.2977,-17.5934,-114.7003
1489427925.1729040146,1489427925.1753110886, -2.4629,  6.2754, -0.2927,-23.9716,-33.7677,-114.7003
1489427925.1753880978,1489427925.1777958870, -2.4629,  6.2754, -0.2927,-23.9716,-33.7677,-114.7003
1489427925.1778728962,1489427925.1802840233, -2.4629,  6.2754, -0.2927,-23.9716,-33.7677,-114.7003
1489427925.1803619862,1489427925.1827759743, -2.4629,  6.2754, -0.2927,-23.9716,-33.7677,-114.7003
1489427925.1828539371,1489427925.1852660179, -2.4629,  6.2754, -0.2927, 47.4243,-27.3438,-115.3564
1489427925.1853430271,1489427925.1877510548, -2.4629,  6.2754, -0.2927, 47.4243,-27.3438,-115.3564
1489427925.1878290176,1489427925.1902339458, -2.4629,  6.2754, -0.2927, 47.4243,-27.3438,-115.3564
1489427925.1903109550,1489427925.1926779747, -2.4629, -2.5564,  0.8240, 47.4243,-27.3438,-115.3564
1489427925.1927549839,1489427925.1950399876, -2.4592, -2.5564,  0.8240,-111.8774,-29.3121,-173.7976
1489427925.1951179504,1489427925.1973979473, -2.4592, -2.5564,  0.8240,-111.8774,-29.3121,-173.7976
1489427925.1974759102,1489427925.1997649670, -2.4592, -2.5564,  0.8240,-111.8774,-29.3121,-173.7976
1489427925.1998419762,1489427925.2022080421, -2.4592, -2.5564,  0.8240,-111.8774,-29.3121,-173.7976
1489427925.2022860050,1489427925.2046940327, -2.4592, -2.5564,  0.8240,-111.8774,-29.3121,-212.2345
1489427925.2047719955,1489427925.2071781158, -2.4592, -2.5564,  0.8240,-123.7640,-25.1923,-212.2345
1489427925.2072560787,1489427925.2096590996, -2.4592, -2.5564,  0.8240,-123.7640,-25.1923,-212.2345
1489427925.2097380161,1489427925.2121620178, -2.4592, -2.5564,  0.0115,-123.7640,-25.1923,-212.2345
1489427925.2122399807,1489427925.2146520615, -1.0859, -1.0508,  0.0115,-123.7640,-25.1923,-212.2345
1489427925.2147300243,1489427925.2171359062, -1.0859, -1.0508,  0.0115,-27.2980,-29.2358,-162.6892
1489427925.2172141075,1489427925.2196249962, -1.0859, -1.0508,  0.0115,-27.2980,-29.2358,-162.6892
1489427925.2197039127,1489427925.2221639156, -1.0859, -1.0508,  0.0115,-27.2980,-29.2358,-162.6892
1489427925.2222421169,1489427925.2246489525, -1.0859, -1.0508,  0.0115,-27.2980,-29.2358,-162.6892
1489427925.2247269154,1489427925.2271349430, -1.0859, -1.0508,  0.0115, -8.3313,-25.4517,-128.0212
1489427925.2272109985,1489427925.2296159267, -1.0859, -1.0508,  0.0115, -8.3313,-25.4517,-128.0212
1489427925.2296919823,1489427925.2321469784, -1.0859, -1.0508, -0.1399, -8.3313,-25.4517,-128.0212
1489427925.2322230339,1489427925.2346251011, -0.7471,  0.8306, -0.1399, -8.3313,-25.4517,-128.0212
1489427925.2347021103,1489427925.2371110916, -0.7471,  0.8306, -0.1399,-38.4064,-22.2321,-142.2272
1489427925.2371900082,1489427925.2395989895, -0.7471,  0.8306, -0.1399,-38.4064,-22.2321,-142.2272
1489427925.2396779060,1489427925.2420730591, -0.7471,  0.8306, -0.1399,-38.4064,-22.2321,-142.2272
1489427925.2421519756,1489427925.2444460392, -0.7471,  0.8306, -0.1399,-38.4064,-22.2321,-142.2272
1489427925.2445240021,1489427925.2468070984, -0.7471,  0.8306, -0.1399,-38.4064,-22.2321,-140.8386
1489427925.2468860149,1489427925.2491719723, -0.7471,  0.8306, -0.1399,-38.0707,-21.3318,-140.8386
1489427925.2492499352,1489427925.2515969276, -0.7471,  0.8306, -0.1399,-38.0707,-21.3318,-140.8386
1489427925.2516760826,1489427925.2540879250, -1.1865, -0.3491, -0.0259,-38.0707,-21.3318,-140.8386
1489427925.2541670799,1489427925.2565760612, -1.1865, -0.3491, -0.0259,-38.0707,-21.3318,-140.8386
1489427925.2566540241,1489427925.2590670586, -1.1865, -0.3491, -0.0259,-22.8882,-16.4795,-130.5237
1489427925.2591450214,1489427925.2615571022, -1.1865, -0.3491, -0.0259,-22.8882,-16.4795,-130.5237
1489427925.2617421150,1489427925.2641549110, -1.1865, -0.3491, -0.0259,-22.8882,-16.4795,-130.5237
1489427925.2642331123,1489427925.2666409016, -1.1865, -0.3491, -0.0259,-22.8882,-16.4795,-130.5237
1489427925.2667200565,1489427925.2691318989, -1.1865, -0.3491, -0.0259,-19.1345,-11.8256,-126.7090
1489427925.2692110538,1489427925.2716369629, -1.1865, -0.3491, -0.0259,-19.1345,-11.8256,-126.7090
1489427925.2717149258,1489427925.2741179466, -1.2747, -0.2676, -0.2476,-19.1345,-11.8256,-126.7090
1489427925.2741959095,1489427925.2766020298, -1.2747, -0.2676, -0.2476,-19.1345,-11.8256,-126.7090
1489427925.2766799927,1489427925.2790920734, -1.2747, -0.2676, -0.2476,-19.1345,-13.0310,-116.4551
1489427925.2791709900,1489427925.2815909386, -1.2747, -0.2676, -0.2476,-18.2190,-13.0310,-116.4551
1489427925.2816700935,1489427925.2840809822, -1.2747, -0.2676, -0.2476,-18.2190,-13.0310,-116.4551
1489427925.2841589451,1489427925.2865660191, -1.2747, -0.2676, -0.2476,-18.2190,-13.0310,-116.4551
1489427925.2866449356,1489427925.2890510559, -1.2747, -0.2676, -0.2476,-18.2190,-13.0310,-104.8431
1489427925.2891299725,1489427925.2915260792, -1.2747, -0.2676, -0.2476,-21.1639,-14.0076,-104.8431
1489427925.2916049957,1489427925.2938830853, -1.2051, -0.2983, -0.0051,-21.1639,-14.0076,-104.8431
1489427925.2939620018,1489427925.2962460518, -1.2051, -0.2983, -0.0051,-21.1639,-14.0076,-104.8431
1489427925.2963249683,1489427925.2986149788, -1.2051, -0.2983, -0.0051,-21.1639,-14.0076,-104.8431
1489427925.2986938953,1489427925.3009939194, -1.2051, -0.2983, -0.0051,-16.9830,-15.3351,-93.6584
1489427925.3010730743,1489427925.3034870625, -1.2051, -0.2983, -0.0051,-16.9830,-15.3351,-93.6584
1489427925.3035669327,1489427925.3059771061, -1.2051, -0.2983, -0.0051,-16.9830,-15.3351,-93.6584
1489427925.3060560226,1489427925.3084669113, -1.2051, -0.2983, -0.0051,-16.9830,-15.3351,-93.6584
1489427925.3085451126,1489427925.3109700680, -1.2051, -0.2983, -0.0051, -9.1705,-15.3503,-80.9631
1489427925.3110489845,1489427925.3134589195, -1.1213, -0.3899, -0.1121,-11.6272,-15.3503,-80.9631
1489427925.3135380745,1489427925.3159439564, -1.1213, -0.3899, -0.1121,-11.6272,-15.3503,-80.9631
1489427925.3160231113,1489427925.3184370995, -1.1213, -0.3899, -0.1121,-11.6272,-15.3503,-80.9631
1489427925.3185160160,1489427925.3209369183, -1.1213, -0.3899, -0.1121,-11.6272,-15.3503,-68.6798
1489427925.3210160732,1489427925.3234291077, -1.1213, -0.3899, -0.1121,-10.2692,-14.1602,-68.6798
1489427925.3235080242,1489427925.3259170055, -1.1213, -0.3899, -0.1121,-10.2692,-14.1602,-68.6798
1489427925.3259959221,1489427925.3284070492, -1.1213, -0.3899, -0.1121,-10.2692,-14.1602,-68.6798
1489427925.3284859657,1489427925.3309390545, -1.1213, -0.3899, -0.1121,-10.2692,-14.1602,-68.6798
1489427925.3310179710,1489427925.3334310055, -1.1245, -0.0242, -0.0042,-15.4419,-11.4441,-62.4390
1489427925.3335099220,1489427925.3359200954, -1.1245, -0.0242, -0.0042,-15.4419,-11.4441,-62.4390
1489427925.3359980583,1489427925.3384060860, -1.1245, -0.0242, -0.0042,-15.4419,-11.4441,-62.4390
1489427925.3384850025,1489427925.3408930302, -1.1245, -0.0242, -0.0042,-15.4419,-11.4441,-62.4390
1489427925.3410139084,1489427925.3433070183, -1.1245, -0.0242, -0.0042,-20.2332, -7.0496,-61.0199
1489427925.3433849812,1489427925.3456690311, -1.1245, -0.0242, -0.0042,-20.2332, -7.0496,-61.0199
1489427925.3457450867,1489427925.3480300903, -1.1245, -0.0242, -0.0042,-20.2332, -7.0496,-61.0199
1489427925.3481070995,1489427925.3503940105, -1.1245, -0.0242, -0.0042,-20.2332, -7.0496,-61.0199
1489427925.3504710197,1489427925.3528668880, -1.1245, -0.2280,  0.0886,-20.2332, -3.1433,-57.8308
1489427925.3529438972,1489427925.3553519249, -1.1392, -0.2280,  0.0886,-18.1580, -1.3733,-57.8308
1489427925.3554289341,1489427925.3578400612, -1.1392, -0.2280,  0.0886,-18.1580, -1.3733,-57.8308
1489427925.3579170704,1489427925.3603270054, -1.1392, -0.2280,  0.0886,-18.1580, -1.3733,-57.8308
1489427925.3604049683,1489427925.3628330231, -1.1392, -0.2280,  0.0886,-18.1580, -1.3733,-53.9246
1489427925.3630120754,1489427925.3654239178, -1.1392, -0.2280,  0.0886,-11.6272,  4.1504,-52.1088
1489427925.3655009270,1489427925.3679149151, -1.1392, -0.2280,  0.0886,-11.6272,  4.1504,-52.1088
1489427925.3679919243,1489427925.3704059124, -1.1392, -0.2280,  0.0886,-11.6272,  4.1504,-52.1088
1489427925.3704829216,1489427925.3729469776, -1.1392, -0.2881,  0.0667,-11.6272,  4.1504,-52.1088
1489427925.3730239868,1489427925.3754379749, -1.1311, -0.2881,  0.0667,  1.1902,  8.8959,-44.8761
1489427925.3755130768,1489427925.3779261112, -1.1311, -0.2881,  0.0667,  1.1902,  8.8959,-44.8761
1489427925.3780009747,1489427925.3804080486, -1.1311, -0.2881,  0.0667,  1.1902,  8.8959,-44.8761
1489427925.3804829121,1489427925.3829469681, -1.1311, -0.2881,  0.0667,  1.1902,  8.8959,-44.8761
1489427925.3830230236,1489427925.3854310513, -1.1311, -0.2881,  0.0667, 16.7389, 11.7340,-36.2396
1489427925.3855109215,1489427925.3879148960, -1.1311, -0.2881,  0.0667, 16.7389, 11.7340,-36.2396
1489427925.3879950047,1489427925.3904089928, -1.1311, -0.2881,  0.0667, 16.7389, 11.7340,-36.2396
1489427925.3904900551,1489427925.3928539753, -1.1311, -0.1865,  0.0029, 16.7389, 11.7340,-36.2396
1489427925.3929340839,1489427925.3952178955, -1.1660, -0.1865,  0.0029, 16.7389, 13.8702,-27.7710
1489427925.3952980042,1489427925.3975849152, -1.1660, -0.1865,  0.0029, 27.0844, 13.8702,-27.7710
1489427925.3976650238,1489427925.3999540806, -1.1660, -0.1865,  0.0029, 27.0844, 13.8702,-27.7710
1489427925.4000339508,1489427925.4023959637, -1.1660, -0.1865,  0.0029, 27.0844, 13.8702,-27.7710
1489427925.4024760723,1489427925.4048850536, -1.1660, -0.1865,  0.0029, 27.0844, 13.8702,-27.7710
1489427925.4049649239,1489427925.4075059891, -1.1660, -0.1865,  0.0029, 32.9590, 15.0146,-22.7356
1489427925.4075870514,1489427925.4100079536, -1.1660, -0.1865,  0.0029, 32.9590, 15.0146,-22.7356
1489427925.4100871086,1489427925.4125521183, -1.1660, -0.1865, -0.0601, 32.9590, 15.0146,-22.7356
1489427925.4126319885,1489427925.4150400162, -1.1689, -0.0474, -0.0601, 32.9590, 15.0146,-22.7356
1489427925.4151189327,1489427925.4175310135, -1.1689, -0.0474, -0.0601, 36.2854, 15.1672,-20.9198
1489427925.4176108837,1489427925.4200179577, -1.1689, -0.0474, -0.0601, 36.2854, 15.1672,-20.9198
1489427925.4200971127,1489427925.4225540161, -1.1689, -0.0474, -0.0601, 36.2854, 15.1672,-20.9198
1489427925.4226338863,1489427925.4250440598, -1.1689, -0.0474, -0.0601, 36.2854, 15.1672,-20.9198
1489427925.4251220226,1489427925.4275391102, -1.1689, -0.0474, -0.0601, 36.1176, 15.9454,-20.9808
1489427925.4276180267,1489427925.4300320148, -1.1689, -0.0474, -0.0601, 36.1176, 15.9454,-20.9808
1489427925.4301109314,1489427925.4325659275, -1.1689, -0.0474, -0.1833, 36.1176, 15.9454,-20.9808
1489427925.4326450825,1489427925.4350540638, -1.2000, -0.1509, -0.1833, 36.1176, 15.9454,-20.9808
1489427925.4351339340,1489427925.4375538826, -1.2000, -0.1509, -0.1833, 36.1176, 15.3809,-21.3165
1489427925.4376339912,1489427925.4400451183, -1.2000, -0.1509, -0.1833, 33.7372, 15.3809,-21.3165
1489427925.4401230812,1489427925.4424669743, -1.2000, -0.1509, -0.1833, 33.7372, 15.3809,-21.3165
1489427925.4425449371,1489427925.4448299408, -1.2000, -0.1509, -0.1833, 33.7372, 15.3809,-21.3165
1489427925.4449079037,1489427925.4471940994, -1.2000, -0.1509, -0.1833, 33.7372, 15.3809,-21.3165
1489427925.4472730160,1489427925.4495611191, -1.2000, -0.1509, -0.1833, 29.8920, 12.8784,-22.3389
1489427925.4496400356,1489427925.4519898891, -1.2000, -0.1509, -0.1833, 29.8920, 12.8784,-22.3389
1489427925.4520680904,1489427925.4544770718, -1.1389, -0.0542, -0.2600, 29.8920, 12.8784,-22.3389
1489427925.4545569420,1489427925.4569680691, -1.1389, -0.0542, -0.2600, 29.8920, 12.8784,-22.3389
1489427925.4570479393,1489427925.4594519138, -1.1389, -0.0542, -0.2600, 26.5198,  9.3842,-24.0326
1489427925.4595289230,1489427925.4619510174, -1.1389, -0.0542, -0.2600, 26.5198,  9.3842,-24.0326
1489427925.4620289803,1489427925.4644370079, -1.1389, -0.0542, -0.2600, 26.5198,  9.3842,-24.0326
1489427925.4645140171,1489427925.4669289589, -1.1389, -0.0542, -0.2600, 26.5198,  9.3842,-24.0326
1489427925.4671149254,1489427925.4695279598, -1.1389, -0.0542, -0.2600, 25.5737,  6.3019,-26.7487
1489427925.4696049690,1489427925.4720230103, -1.1389, -0.0542, -0.2600, 25.5737,  6.3019,-26.7487
1489427925.4721000195,1489427925.4745090008, -1.1438, -0.0347, -0.3025, 25.5737,  6.3019,-26.7487
1489427925.4745860100,1489427925.4769968987, -1.1438, -0.0347, -0.3025, 25.5737,  6.3019,-26.7487
1489427925.4770739079,1489427925.4794840813, -1.1438, -0.0347, -0.3025, 25.5737,  6.3019,-30.7465
1489427925.4795620441,1489427925.4819860458, -1.1438, -0.0347, -0.3025, 23.4375,  4.1351,-30.7465
1489427925.4820621014,1489427925.4844698906, -1.1438, -0.0347, -0.3025, 23.4375,  4.1351,-30.7465
1489427925.4845459461,1489427925.4869580269, -1.1438, -0.0347, -0.3025, 23.4375,  4.1351,-30.7465
1489427925.4870340824,1489427925.4894499779, -1.1438, -0.0347, -0.3025, 23.4375,  4.1351,-30.7465
1489427925.4895269871,1489427925.4919219017, -1.1438, -0.0347, -0.3025, 19.6686,  2.4872,-37.4146
1489427925.4920001030,1489427925.4942851067, -1.1316, -0.0562, -0.2261, 19.6686,  2.4872,-37.4146
1489427925.4943621159,1489427925.4966509342, -1.1316, -0.0562, -0.2261, 19.6686,  2.4872,-37.4146
1489427925.4967269897,1489427925.4990079403, -1.1316, -0.0562, -0.2261, 19.6686,  2.4872,-37.4146
1489427925.4990849495,1489427925.5013830662, -1.1316, -0.0562, -0.2261, 14.5874,  0.8850,-45.2576
1489427925.5014600754,1489427925.5037419796, -1.1316, -0.0562, -0.2261, 14.5874,  0.8850,-45.2576
1489427925.5038199425,1489427925.5061008930, -1.1316, -0.0562, -0.2261, 14.5874,  0.8850,-45.2576
1489427925.5061779022,1489427925.5084640980, -1.1316, -0.0562, -0.2261, 14.5874,  0.8850,-45.2576
1489427925.5085399151,1489427925.5108261108, -1.1316, -0.0562, -0.2261, 14.5874,  0.8850,-53.0701
1489427925.5109539032,1489427925.5133659840, -1.0691, -0.0564, -0.1924, 10.5438, -0.0458,-51.2848
1489427925.5134439468,1489427925.5158550739, -1.1238, -0.0564, -0.1924, 10.5438, -0.0458,-51.2848
1489427925.5159330368,1489427925.5183360577, -1.1238, -0.0564, -0.1924, 10.5438, -0.0458,-51.2848
1489427925.5184130669,1489427925.5208270550, -1.1238, -0.0564, -0.1924, 10.5438, -0.0458,-51.2848
1489427925.5209560394,1489427925.5233690739, -1.1238, -0.0564, -0.1924,  8.1329, -0.1526,-58.1207
1489427925.5234439373,1489427925.5258541107, -1.1238, -0.0564, -0.1924,  8.1329, -0.1526,-58.1207
1489427925.5259289742,1489427925.5283410549, -1.1238, -0.0564, -0.1924,  8.1329, -0.1526,-58.1207
1489427925.5284159184,1489427925.5308260918, -1.1238, -0.0564, -0.1924,  8.1329, -0.1526,-58.1207
1489427925.5309491158,1489427925.5333569050, -1.1863, -0.1521, -0.1929,  2.8076,  1.0223,-64.1479
1489427925.5334300995,1489427925.5358440876, -1.1296, -0.1521, -0.1929,  2.8076,  1.0223,-64.1479
1489427925.5359179974,1489427925.5383229256, -1.1296, -0.1521, -0.1929,  2.8076,  1.0223,-64.1479
1489427925.5383958817,1489427925.5408110619, -1.1296, -0.1521, -0.1929,  2.8076,  1.0223,-64.1479
1489427925.5408849716,1489427925.5432128906, -1.1296, -0.1521, -0.1929,  2.8076, -0.1984,-68.4052
1489427925.5432879925,1489427925.5455720425, -1.1296, -0.1521, -0.1929,  2.8229, -0.1984,-68.4052
1489427925.5456469059,1489427925.5479331017, -1.1296, -0.1521, -0.1929,  2.8229, -0.1984,-68.4052
1489427925.5480070114,1489427925.5502860546, -1.1296, -0.1521, -0.1929,  2.8229, -0.1984,-68.4052
1489427925.5503599644,1489427925.5527811050, -1.1296, -0.1521, -0.0735,  2.8229, -0.1984,-68.4052
1489427925.5528559685,1489427925.5552649498, -1.1277, -0.2432, -0.0735,  7.4768, -1.3885,-69.2902
1489427925.5553390980,1489427925.5577499866, -1.1277, -0.2432, -0.0735,  7.4768, -1.3885,-69.2902
1489427925.5578229427,1489427925.5602378845, -1.1277, -0.2432, -0.0735,  7.4768, -1.3885,-69.2902
1489427925.5603120327,1489427925.5627698898, -1.1277, -0.2432, -0.0735,  7.4768, -1.3885,-69.2902
1489427925.5628430843,1489427925.5652539730, -1.1277, -0.2432, -0.0735, 12.8937, -1.9684,-69.3665
1489427925.5653309822,1489427925.5677471161, -1.1277, -0.2432, -0.0735, 12.8937, -1.9684,-69.3665
1489427925.5678238869,1489427925.5702428818, -1.1277, -0.2432, -0.0735, 12.8937, -1.9684,-69.3665
1489427925.5704290867,1489427925.5728490353, -1.1277, -0.2432, -0.0869, 12.8937, -1.9684,-69.3665
1489427925.5729260445,1489427925.5753409863, -1.2407, -0.3477, -0.0869, 18.0511, -2.2125,-69.2749
1489427925.5754179955,1489427925.5778310299, -1.2407, -0.3477, -0.0869, 18.0511, -2.2125,-69.2749
1489427925.5779080391,1489427925.5803179741, -1.2407, -0.3477, -0.0869, 18.0511, -2.2125,-69.2749
1489427925.5803949833,1489427925.5828139782, -1.2407, -0.3477, -0.0869, 18.0511, -2.2125,-69.2749
1489427925.5828909874,1489427925.5853009224, -1.2407, -0.3477, -0.0869, 18.0511, -2.2125,-66.8945
1489427925.5853769779,1489427925.5877890587, -1.2407, -0.3477, -0.0869, 24.6887, -2.2583,-66.8945
1489427925.5878651142,1489427925.5902690887, -1.2407, -0.3477, -0.0869, 24.6887, -2.2583,-66.8945
1489427925.5903460979,1489427925.5926759243, -1.2407, -0.3477, -0.1003, 24.6887, -2.2583,-66.8945
1489427925.5927529335,1489427925.5950379372, -1.3792, -0.3245, -0.1003, 24.6887, -2.2583,-66.8945
1489427925.5951149464,1489427925.5973989964, -1.3792, -0.3245, -0.1003, 31.9214, -0.9613,-63.3392
1489427925.5974769592,1489427925.5997669697, -1.3792, -0.3245, -0.1003, 31.9214, -0.9613,-63.3392
1489427925.5998439789,1489427925.6022100449, -1.3792, -0.3245, -0.1003, 31.9214, -0.9613,-63.3392
1489427925.6022889614,1489427925.6047010422, -1.3792, -0.3245, -0.1003, 31.9214, -0.9613,-63.3392
1489427925.6047790051,1489427925.6071920395, -1.3792, -0.3245, -0.1003, 39.9170, -3.1891,-65.5975
1489427925.6072700024,1489427925.6096799374, -1.3792, -0.3245, -0.1003, 39.9170, -3.1891,-65.5975
1489427925.6097569466,1489427925.6122589111, -1.3792, -0.3245, -0.1003, 39.9170, -3.1891,-65.5975
1489427925.6123390198,1489427925.6147398949, -1.5686, -0.1584,  0.1118, 39.9170, -3.1891,-65.5975
1489427925.6148180962,1489427925.6172130108, -1.5686, -0.1584,  0.1118, 39.9170, -6.5918,-71.2433
1489427925.6172909737,1489427925.6196920872, -1.5686, -0.1584,  0.1118, 38.9099, -6.5918,-71.2433
1489427925.6197690964,1489427925.6222500801, -1.5686, -0.1584,  0.1118, 38.9099, -6.5918,-71.2433
1489427925.6223371029,1489427925.6247429848, -1.5686, -0.1584,  0.1118, 38.9099, -6.5918,-71.2433
1489427925.6248219013,1489427925.6272261143, -1.5686, -0.1584,  0.1118, 38.9099, -6.5918,-76.4008
1489427925.6273040771,1489427925.6296989918, -1.5686, -0.1584,  0.1118, 31.6010,-13.9771,-76.4008
1489427925.6297791004,1489427925.6321699619, -1.5686, -0.1584,  0.1118, 31.6010,-13.9771,-76.4008
1489427925.6322510242,1489427925.6346650124, -1.5569, -0.1775,  0.1665, 31.6010,-13.9771,-76.4008
1489427925.6347448826,1489427925.6371550560, -1.5569, -0.1775,  0.1665, 31.6010,-13.9771,-76.4008
1489427925.6372339725,1489427925.6396529675, -1.5569, -0.1775,  0.1665, 26.1536,-20.4163,-96.3440
1489427925.6397318840,1489427925.6420888901, -1.5569, -0.1775,  0.1665, 26.1536,-20.4163,-96.3440
1489427925.6421680450,1489427925.6444439888, -1.5569, -0.1775,  0.1665, 26.1536,-20.4163,-96.3440
1489427925.6445240974,1489427925.6468150616, -1.5569, -0.1775,  0.1665, 26.1536,-20.4163,-96.3440
1489427925.6468939781,1489427925.6491789818, -1.5569, -0.1775,  0.1665, 27.9541,-21.3470,-109.9396
1489427925.6492569447,1489427925.6515889168, -1.5569, -0.1775,  0.1665, 27.9541,-21.3470,-109.9396
1489427925.6516671181,1489427925.6539559364, -1.6511,  0.0242, -0.0081, 27.9541,-21.3470,-109.9396
1489427925.6540360451,1489427925.6563160419, -1.6511,  0.0242, -0.0081, 27.9541,-21.3470,-109.9396
1489427925.6563949585,1489427925.6586790085, -1.6511,  0.0242, -0.0081, 27.9541,-21.3470,-109.9396
1489427925.6587591171,1489427925.6610629559, -1.6511,  0.0242, -0.0081, 28.3356,-21.3623,-118.4540
1489427925.6611430645,1489427925.6635549068, -1.6511,  0.0242, -0.0081, 28.3356,-21.3623,-118.4540
1489427925.6636350155,1489427925.6660499573, -1.6511,  0.0242, -0.0081, 28.3356,-21.3623,-118.4540
1489427925.6661300659,1489427925.6685349941, -1.6511,  0.0242, -0.0081, 28.3356,-21.3623,-118.4540
1489427925.6686151028,1489427925.6710300446, -1.6511,  0.0242, -0.0081, 28.4424,-23.8190,-124.6490
1489427925.6711111069,1489427925.6735239029, -1.8386, -0.0122,  0.0095, 28.4424,-23.8190,-124.6490
1489427925.6737189293,1489427925.6761310101, -1.8206, -0.0122,  0.0095, 28.4424,-23.8190,-124.6490
1489427925.6762120724,1489427925.6786270142, -1.8206, -0.0122,  0.0095, 28.4424,-23.8190,-124.6490
1489427925.6787059307,1489427925.6811621189, -1.8206, -0.0122,  0.0095, 35.5377,-29.0222,-130.2948
1489427925.6812410355,1489427925.6836531162, -1.8206, -0.0122,  0.0095, 35.5377,-29.0222,-130.2948
1489427925.6837329865,1489427925.6861500740, -1.8206, -0.0122,  0.0095, 35.5377,-29.0222,-130.2948
1489427925.6862299442,1489427925.6886379719, -1.8206, -0.0122,  0.0095, 35.5377,-29.0222,-130.2948
1489427925.6887168884,1489427925.6911659241, -1.8206, -0.0122,  0.0095, 35.5377,-32.9285,-135.2844
1489427925.6912460327,1489427925.6936628819, -2.0081,  0.1450, -0.1802, 44.2657,-33.7524,-135.2844
1489427925.6937420368,1489427925.6961479187, -2.0605,  0.1450, -0.1802, 44.2657,-33.7524,-135.2844
1489427925.6962258816,1489427925.6986379623, -2.0605,  0.1450, -0.1802, 44.2657,-33.7524,-135.2844
1489427925.6987159252,1489427925.7011549473, -2.0605,  0.1450, -0.1802, 44.2657,-33.7524,-143.0969
1489427925.7012329102,1489427925.7035169601, -2.0605,  0.1450, -0.1802, 53.8483,-38.8336,-143.6310
1489427925.7035961151,1489427925.7058811188, -2.0605,  0.1450, -0.1802, 53.8483,-38.8336,-143.6310
1489427925.7059600353,1489427925.7082428932, -2.0605,  0.1450, -0.1802, 53.8483,-38.8336,-143.6310
1489427925.7083220482,1489427925.7106029987, -2.0605,  0.1450, -0.1802, 53.8483,-38.8336,-143.6310
1489427925.7106809616,1489427925.7131340504, -2.0605,  0.5200, -0.5227, 69.1833,-46.7224,-150.4974
1489427925.7132129669,1489427925.7156169415, -2.2029,  0.5356, -0.5227, 69.1833,-46.7224,-150.4974
1489427925.7156960964,1489427925.7181060314, -2.2029,  0.5356, -0.5227, 69.1833,-46.7224,-150.4974
1489427925.7181839943,1489427925.7205939293, -2.2029,  0.5356, -0.5227, 69.1833,-46.7224,-150.4974
1489427925.7206718922,1489427925.7230820656, -2.2029,  0.5356, -0.5227, 76.9958,-53.5736,-163.7573
1489427925.7231609821,1489427925.7255721092, -2.2029,  0.5356, -0.5227, 77.9877,-53.5736,-163.7573
1489427925.7256519794,1489427925.7280580997, -2.2029,  0.5356, -0.5227, 77.9877,-53.5736,-163.7573
1489427925.7281360626,1489427925.7305390835, -2.2029,  0.5356, -0.5227, 77.9877,-53.5736,-163.7573
1489427925.7306170464,1489427925.7330410480, -2.2029,  1.0356, -0.7336, 77.9877,-53.5736,-185.7910
1489427925.7331190109,1489427925.7355248928, -2.3418,  1.0508, -0.7336, 81.4972,-63.4613,-185.7910
1489427925.7356040478,1489427925.7380139828, -2.3418,  1.0508, -0.7336, 81.4972,-63.4613,-185.7910
1489427925.7380928993,1489427925.7405040264, -2.3418,  1.0508, -0.7336, 81.4972,-63.4613,-185.7910
1489427925.7405829430,1489427925.7430009842, -2.3418,  1.0508, -0.7336, 81.4972,-63.4613,-185.7910
1489427925.7430799007,1489427925.7454960346, -2.3418,  1.0508, -0.7336, 78.1250,-72.5708,-210.8765
1489427925.7455749512,1489427925.7479848862, -2.3418,  1.0508, -0.7336, 78.1250,-72.5708,-210.8765
1489427925.7480630875,1489427925.7504739761, -2.3418,  1.0508, -0.7336, 78.1250,-72.5708,-210.8765
1489427925.7505528927,1489427925.7528750896, -2.3418,  1.0508, -0.4629, 78.1250,-72.5708,-210.8765
1489427925.7529530525,1489427925.7552390099, -2.2803,  1.0691, -0.4629, 61.4319,-80.9479,-242.2791
1489427925.7553179264,1489427925.7576069832, -2.2803,  1.0691, -0.4629, 61.4319,-80.9479,-242.2791
1489427925.7576849461,1489427925.7599670887, -2.2803,  1.0691, -0.4629, 61.4319,-80.9479,-242.2791
1489427925.7600450516,1489427925.7623291016, -2.2803,  1.0691, -0.4629, 61.4319,-80.9479,-242.2791
1489427925.7624080181,1489427925.7646958828, -2.2803,  1.0691, -0.4629, 61.4319,-80.9479,-272.9645
1489427925.7647740841,1489427925.7670519352, -2.2803,  1.0691, -0.4629, 17.8070,-77.7588,-272.9645
1489427925.7671298981,1489427925.7694110870, -2.2803,  1.0691, -0.4629, 17.8070,-77.7588,-272.9645
1489427925.7694900036,1489427925.7718439102, -2.2803,  1.0691, -0.4629, 17.8070,-77.7588,-272.9645
1489427925.7719240189,1489427925.7743299007, -3.1113,  0.6091, -0.1738, 17.8070,-77.7588,-272.9645
1489427925.7745189667,1489427925.7769389153, -3.1113,  0.6091, -0.1738,-19.4855,-73.6389,-271.5302
1489427925.7770171165,1489427925.7794198990, -3.1113,  0.6091, -0.1738,-19.4855,-73.6389,-271.5302
1489427925.7794981003,1489427925.7819519043, -3.1113,  0.6091, -0.1738,-19.4855,-73.6389,-271.5302
1489427925.7820301056,1489427925.7844460011, -3.1113,  0.6091, -0.1738,-19.4855,-73.6389,-271.5302
1489427925.7845249176,1489427925.7869338989, -3.1113,  0.6091, -0.1738,  0.4272,-79.7882,-258.7738
1489427925.7870099545,1489427925.7894179821, -3.1113,  0.6091, -0.1738,  0.4272,-79.7882,-258.7738
1489427925.7894949913,1489427925.7919530869, -3.1113,  0.6091, -0.1738,  0.4272,-79.7882,-258.7738
1489427925.7920300961,1489427925.7944369316, -2.8838,  0.4304, -0.9883,  0.4272,-79.7882,-258.7738
1489427925.7945139408,1489427925.7969310284, -2.8838,  0.4304, -0.9883,  0.4272,-67.3523,-261.1847
1489427925.7970080376,1489427925.7994189262, -2.8838,  0.4304, -0.9883,-42.5110,-67.3523,-261.1847
1489427925.7994990349,1489427925.8019518852, -2.8838,  0.4304, -0.9883,-42.5110,-67.3523,-261.1847
1489427925.8020319939,1489427925.8044450283, -2.8838,  0.4304, -0.9883,-42.5110,-67.3523,-261.1847
1489427925.8045239449,1489427925.8069291115, -2.8838,  0.4304, -0.9883,-42.5110,-67.3523,-239.5477
1489427925.8070080280,1489427925.8094151020, -2.8838,  0.4304, -0.9883,-82.7484,-39.2914,-239.5477
1489427925.8094949722,1489427925.8119020462, -2.8838,  0.4304, -0.9883,-82.7484,-39.2914,-239.5477
1489427925.8119800091,1489427925.8142631054, -2.2964,  0.0071, -0.8855,-82.7484,-39.2914,-239.5477
1489427925.8143429756,1489427925.8166339397, -2.2964,  0.0071, -0.8855,-82.7484,-39.2914,-239.5477
1489427925.8167130947,1489427925.8189969063, -2.2964,  0.0071, -0.8855,-87.4634,-11.2457,-201.0193
1489427925.8190770149,1489427925.8213889599, -2.2964,  0.0071, -0.8855,-87.4634,-11.2457,-201.0193
1489427925.8214690685,1489427925.8238759041, -2.2964,  0.0071, -0.8855,-87.4634,-11.2457,-201.0193
1489427925.8239560127,1489427925.8263649940, -2.2964,  0.0071, -0.8855,-87.4634,-11.2457,-201.0193
1489427925.8264439106,1489427925.8288528919, -2.2964,  0.0071, -0.8855,-56.2134, -5.7373,-147.1252
1489427925.8289310932,1489427925.8313589096, -2.2964,  0.0071, -0.8855,-56.4728, -5.7373,-147.1252
1489427925.8314371109,1489427925.8338510990, -1.2261,  1.2446, -0.4673,-56.4728, -5.7373,-147.1252
1489427925.8339259624,1489427925.8363358974, -1.2261,  1.2446, -0.4673,-56.4728, -5.7373,-147.1252
1489427925.8364109993,1489427925.8388209343, -1.2261,  1.2446, -0.4673,-56.4728, -5.7373,-83.4961
1489427925.8388960361,1489427925.8413519859, -1.2261,  1.2446, -0.4673, -4.6539,-23.6206,-83.4961
1489427925.8414270878,1489427925.8438429832, -1.2261,  1.2446, -0.4673, -4.6539,-23.6206,-83.4961
1489427925.8439180851,1489427925.8463289738, -1.2261,  1.2446, -0.4673, -4.6539,-23.6206,-83.4961
1489427925.8464040756,1489427925.8488171101, -1.2261,  1.2446, -0.4673, -4.6539,-23.6206,-83.4961
1489427925.8488929272,1489427925.8513600826, -1.2261,  1.2446, -0.4673, 69.5038, 47.0886,-112.2437
1489427925.8514399529,1489427925.8538479805, -2.1567,  0.4998, -0.5203, 69.5038, 47.0886,-112.2437
1489427925.8539268970,1489427925.8563439846, -2.1567,  0.4998, -0.5203, 69.5038, 47.0886,-112.2437
1489427925.8564229012,1489427925.8588309288, -2.1567,  0.4998, -0.5203, 69.5038, 47.0886,-112.2437
1489427925.8589119911,1489427925.8613440990, -2.1567,  0.4998, -0.5203,100.1892, 39.9933,-41.9769
1489427925.8614220619,1489427925.8637158871, -2.1567,  0.4998, -0.5203,100.1892, 39.9933,-41.9769
1489427925.8637959957,1489427925.8660829067, -2.1567,  0.4998, -0.5203,100.1892, 39.9933,-41.9769
1489427925.8661611080,1489427925.8684430122, -2.1567,  0.4998, -0.5203,100.1892, 39.9933,-41.9769
1489427925.8685209751,1489427925.8708090782, -2.1567,  0.4998, -0.5203,100.1892, 51.7578, 39.9017
1489427925.8708879948,1489427925.8733708858, -2.1567,  2.0623, -0.4626, 88.4399, 51.7578, 39.9017
1489427925.8734500408,1489427925.8758649826, -0.5457,  2.0166, -0.4626, 88.4399, 51.7578, 39.9017
1489427925.8759438992,1489427925.8783550262, -0.5457,  2.0166, -0.4626, 88.4399, 51.7578, 39.9017
1489427925.8785400391,1489427925.8809630871, -0.5457,  2.0166, -0.4626, 88.4399, 51.7578, 64.5752
1489427925.8810420036,1489427925.8834540844, -0.5457,  2.0166, -0.4626, 45.1202, 57.4646, 64.5752
1489427925.8835330009,1489427925.8859410286, -0.5457,  2.0166, -0.4626, 45.1202, 57.4646, 64.5752
1489427925.8860208988,1489427925.8884279728, -0.5457,  2.0166, -0.4626, 45.1202, 57.4646, 64.5752
1489427925.8885068893,1489427925.8909530640, -0.5457,  2.0166, -0.4626, 45.1202, 57.4646, 64.5752
1489427925.8910329342,1489427925.8933179379, -0.5457,  0.8916, -0.0728,-23.5291, 50.8270,115.4175
1489427925.8933990002,1489427925.8956940174, -0.6411,  0.8835, -0.0728,-23.5291, 50.8270,115.4175
1489427925.8957738876,1489427925.8980600834, -0.6411,  0.8835, -0.0728,-23.5291, 50.8270,115.4175
1489427925.8981389999,1489427925.9004220963, -0.6411,  0.8835, -0.0728,-23.5291, 50.8270,115.4175
1489427925.9005019665,1489427925.9034609795, -0.6411,  0.8835, -0.0728,-57.2662, 47.8210,159.3475
1489427925.9035511017,1489427925.9059200287, -0.6411,  0.8835, -0.0728,-57.2662, 47.8210,159.3475
