timestamp_before,timestamp_after,accel_x,accel_y,accel_z,gyro_x,gyro_y,gryo_z
1490284080.8706090450,1490284080.8729460239, -7.0029, -1.5139, -7.9980, -1.2817, -0.4120,  0.0458
1490284080.8730781078,1490284080.8753669262, -7.0029, -1.5139, -7.9980, -1.2817, -0.4120,  0.0458
1490284080.8754389286,1490284080.8784980774, -1.1174,  0.2231, -0.1858, -1.2817, -0.4120,  0.0458
1490284080.8785760403,1490284080.8810470104, -1.1174,  0.2231, -0.1858,-55.2826,-114.6698,  1.0223
1490284080.8811259270,1490284080.8835399151, -1.1174,  0.2231, -0.1858,-55.2826,-114.6698,  1.0223
1490284080.8836169243,1490284080.8859009743, -1.1174,  0.2231, -0.1858,-55.2826,-114.6698,  1.0223
1490284080.8859760761,1490284080.8882589340, -1.1174,  0.2231, -0.1858,-55.2826,-114.6698,  1.0223
1490284080.8883349895,1490284080.8906180859, -1.1174,  0.2231, -0.1858,-55.2826,-200.6073, -2.1820
1490284080.8906950951,1490284080.8931589127, -1.1174,  0.2231, -0.1858,-80.1544,-202.9419, -2.1820
1490284080.8932371140,1490284080.8955531120, -1.1174,  0.2231, -0.1858,-80.1544,-202.9419, -2.1820
1490284080.8956298828,1490284080.8979079723, -1.1099,  0.2139, -0.1814,-80.1544,-202.9419, -2.1820
1490284080.8979849815,1490284080.9002680779, -1.1099,  0.2139, -0.1814,-80.1544,-202.9419, -2.1820
1490284080.9003450871,1490284080.9027678967, -1.1099,  0.2139, -0.1814,-80.4749,-203.6438, -2.0447
1490284080.9028460979,1490284080.9051289558, -1.1099,  0.2139, -0.1814,-80.4749,-203.6438, -2.0447
1490284080.9052050114,1490284080.9074909687, -1.1099,  0.2139, -0.1814,-80.4749,-203.6438, -2.0447
1490284080.9075679779,1490284080.9098529816, -1.1099,  0.2139, -0.1814,-80.4749,-203.6438, -2.0447
1490284080.9099290371,1490284080.9124050140, -1.1099,  0.2139, -0.1814,-80.3833,-204.0100, -1.7242
1490284080.9124829769,1490284080.9148950577, -1.1099,  0.2139, -0.1814,-80.3833,-204.0100, -1.7242
1490284080.9149730206,1490284080.9173829556, -1.1099,  0.2205, -0.1873,-80.3833,-204.0100, -1.7242
1490284080.9174609184,1490284080.9198739529, -1.1152,  0.2205, -0.1873,-80.3833,-204.0100, -1.7242
1490284080.9199500084,1490284080.9223639965, -1.1152,  0.2205, -0.1873,-80.6580,-204.3152, -2.0599
1490284080.9224410057,1490284080.9248490334, -1.1152,  0.2205, -0.1873,-80.6580,-204.3152, -2.0599
1490284080.9249279499,1490284080.9273419380, -1.1152,  0.2205, -0.1873,-80.6580,-204.3152, -2.0599
1490284080.9274199009,1490284080.9298329353, -1.1152,  0.2205, -0.1873,-80.6580,-204.3152, -2.0599
1490284080.9299108982,1490284080.9323410988, -1.1152,  0.2205, -0.1873,-80.0018,-204.3304, -2.4109
1490284080.9324181080,1490284080.9348299503, -1.1152,  0.2205, -0.1873,-80.0018,-204.3304, -2.4109
1490284080.9349069595,1490284080.9373168945, -1.1152,  0.2290, -0.1892,-80.0018,-204.3304, -2.4109
1490284080.9373939037,1490284080.9398069382, -1.1084,  0.2290, -0.1892,-80.0018,-204.3304, -2.4109
1490284080.9398829937,1490284080.9423069954, -1.1084,  0.2290, -0.1892,-80.0018,-200.4242, -2.5482
1490284080.9423840046,1490284080.9447960854, -1.1084,  0.2290, -0.1892,-78.8422,-201.6907, -2.5482
1490284080.9448969364,1490284080.9474780560, -1.1084,  0.2290, -0.1892,-78.8422,-201.6907, -2.5482
1490284080.9475550652,1490284080.9498391151, -1.1084,  0.2290, -0.1892,-78.8422,-201.6907, -2.5482
1490284080.9499170780,1490284080.9523758888, -1.1084,  0.2290, -0.1892,-78.8422,-201.6907, -2.5482
1490284080.9524519444,1490284080.9547309875, -1.1084,  0.2290, -0.1892,-78.2318,-198.8068, -1.6327
1490284080.9548079967,1490284080.9570970535, -1.1084,  0.2195, -0.1902,-78.2318,-198.8068, -1.6327
1490284080.9571740627,1490284080.9596400261, -1.1008,  0.2195, -0.1902,-78.2318,-198.8068, -1.6327
1490284080.9597189426,1490284080.9620490074, -1.1008,  0.2195, -0.1902,-78.2318,-198.8068, -1.6327
1490284080.9621260166,1490284080.9645240307, -1.1008,  0.2195, -0.1902,-77.6520,-196.9910, -1.5411
1490284080.9646019936,1490284080.9669959545, -1.1008,  0.2195, -0.1902,-77.6520,-196.9910, -1.5411
1490284080.9670729637,1490284080.9694650173, -1.1008,  0.2195, -0.1902,-77.6520,-196.9910, -1.5411
1490284080.9695420265,1490284080.9719390869, -1.1008,  0.2195, -0.1902,-77.6520,-196.9910, -1.5411
1490284080.9722270966,1490284080.9746010303, -1.1008,  0.2195, -0.1902,-77.2095,-194.2902, -2.1210
1490284080.9746789932,1490284080.9770510197, -1.1008,  0.2229, -0.2004,-77.2095,-194.2902, -2.1210
1490284080.9771289825,1490284080.9795351028, -1.1008,  0.2229, -0.2004,-77.2095,-194.2902, -2.1210
1490284080.9796140194,1490284080.9820299149, -1.1008,  0.2229, -0.2004,-77.2095,-194.2902, -2.1210
1490284080.9821081161,1490284080.9845159054, -1.1008,  0.2229, -0.2004,-77.2095,-194.2902, -2.3041
1490284080.9845929146,1490284080.9870009422, -1.1008,  0.2229, -0.2004,-76.0040,-190.7654, -2.3041
1490284080.9870779514,1490284080.9894859791, -1.1008,  0.2229, -0.2004,-76.0040,-190.7654, -2.3041
1490284080.9895629883,1490284080.9919750690, -1.1008,  0.2229, -0.2004,-76.0040,-190.7654, -2.3041
1490284080.9921000004,1490284080.9943850040, -1.1008,  0.2229, -0.2004,-76.0040,-190.7654, -2.3041
1490284080.9944610596,1490284080.9967460632, -1.1008,  0.2229, -0.1936,-75.0427,-186.1877, -1.5259
1490284080.9968209267,1490284080.9991080761, -1.0989,  0.2229, -0.1936,-75.0427,-186.1877, -1.5259
1490284080.9991850853,1490284081.0014710426, -1.0989,  0.2229, -0.1936,-75.0427,-186.1877, -1.5259
1490284081.0015470982,1490284081.0039119720, -1.0989,  0.2229, -0.1936,-75.0427,-186.1877, -1.5259
1490284081.0039899349,1490284081.0062749386, -1.0989,  0.2229, -0.1936,-73.6542,-180.8014, -1.3885
1490284081.0063519478,1490284081.0086350441, -1.0989,  0.2229, -0.1936,-73.6542,-180.8014, -1.3885
1490284081.0087110996,1490284081.0109989643, -1.0989,  0.2229, -0.1936,-73.6542,-180.8014, -1.3885
1490284081.0110750198,1490284081.0134000778, -1.0989,  0.2229, -0.1936,-73.6542,-180.8014, -1.3885
1490284081.0134770870,1490284081.0157630444, -1.0989,  0.2229, -0.1936,-73.6542,-180.8014, -1.3885
1490284081.0158400536,1490284081.0181250572, -1.1094,  0.2180, -0.1956,-71.0754,-172.1497, -1.5717
1490284081.0182030201,1490284081.0204830170, -1.1094,  0.2180, -0.1956,-71.0754,-172.1497, -1.5717
1490284081.0205609798,1490284081.0233709812, -1.1094,  0.2180, -0.1956,-71.0754,-172.1497, -1.5717
1490284081.0234560966,1490284081.0261070728, -1.1094,  0.2180, -0.1956,-71.0754,-172.1497, -1.5717
1490284081.0261929035,1490284081.0285890102, -1.1094,  0.2180, -0.1956,-67.8101,-160.9344, -1.5411
1490284081.0286679268,1490284081.0310668945, -1.1094,  0.2180, -0.1956,-67.8101,-160.9344, -1.5411
1490284081.0311450958,1490284081.0335469246, -1.1094,  0.2180, -0.1956,-67.8101,-160.9344, -1.5411
1490284081.0336248875,1490284081.0360190868, -1.1094,  0.2180, -0.1956,-67.8101,-160.9344, -1.5411
1490284081.0360970497,1490284081.0384910107, -1.0974,  0.2275, -0.2036,-63.4918,-146.1792, -1.4191
1490284081.0385689735,1490284081.0409619808, -1.0974,  0.2275, -0.2036,-63.4918,-146.1792, -1.4191
1490284081.0410389900,1490284081.0434479713, -1.0974,  0.2275, -0.2036,-63.4918,-146.1792, -1.4191
1490284081.0435240269,1490284081.0459170341, -1.0974,  0.2275, -0.2036,-63.4918,-146.1792, -1.4191
1490284081.0459940434,1490284081.0483849049, -1.0974,  0.2275, -0.2036,-55.6793,-125.7019, -0.8392
1490284081.0484640598,1490284081.0508608818, -1.0974,  0.2275, -0.2036,-58.3801,-125.7019, -0.8392
1490284081.0509390831,1490284081.0533380508, -1.0974,  0.2275, -0.2036,-58.3801,-125.7019, -0.8392
1490284081.0534160137,1490284081.0558130741, -1.0974,  0.2275, -0.2036,-58.3801,-125.7019, -0.8392
1490284081.0558900833,1490284081.0582880974, -1.1128,  0.2192, -0.2380,-58.3801,-125.7019, -0.8392
1490284081.0583651066,1490284081.0607600212, -1.1128,  0.2192, -0.2380,-50.2014,-97.4884, -0.4272
1490284081.0608379841,1490284081.0632450581, -1.1128,  0.2192, -0.2380,-50.2014,-97.4884, -0.4272
1490284081.0633230209,1490284081.0657188892, -1.1128,  0.2192, -0.2380,-50.2014,-97.4884, -0.4272
1490284081.0657970905,1490284081.0682640076, -1.1128,  0.2192, -0.2380,-50.2014,-97.4884, -0.4272
1490284081.0683870316,1490284081.0707979202, -1.1128,  0.2192, -0.2380,-37.7502,-62.9120, -0.7172
1490284081.0708758831,1490284081.0732989311, -1.1128,  0.2192, -0.2380,-37.7502,-62.9120, -0.7172
1490284081.0733759403,1490284081.0757861137, -1.1128,  0.2192, -0.2380,-37.7502,-62.9120, -0.7172
1490284081.0759899616,1490284081.0784029961, -1.0974,  0.2166, -0.1929,-37.7502,-62.9120, -0.7172
1490284081.0784800053,1490284081.0808839798, -1.0974,  0.2166, -0.1929,-19.3024,-22.8271, -2.4414
1490284081.0809600353,1490284081.0833809376, -1.0974,  0.2166, -0.1929,-19.3024,-22.8271, -2.4414
1490284081.0834579468,1490284081.0858650208, -1.0974,  0.2166, -0.1929,-19.3024,-22.8271, -2.4414
1490284081.0859420300,1490284081.0883510113, -1.0974,  0.2166, -0.1929,-19.3024,-22.8271, -2.4414
1490284081.0884280205,1490284081.0908379555, -1.0974,  0.2166, -0.1929, -3.6774,  1.5717, -4.9286
1490284081.0909080505,1490284081.0933260918, -1.0974,  0.2166, -0.1929, -2.8076,  1.5717, -4.9286
1490284081.0933959484,1490284081.0958030224, -1.0974,  0.2166, -0.1929, -2.8076,  1.5717, -4.9286
1490284081.0958731174,1490284081.0982840061, -1.1116,  0.2251, -0.1880, -2.8076,  1.5717, -4.9286
1490284081.0983529091,1490284081.1007618904, -1.1116,  0.2251, -0.1880, -2.8076,  1.5717, -5.1117
1490284081.1008319855,1490284081.1031899452, -1.1116,  0.2251, -0.1880, -1.9989,  1.2207, -5.1117
1490284081.1032609940,1490284081.1055469513, -1.1116,  0.2251, -0.1880, -1.9989,  1.2207, -5.1117
1490284081.1056170464,1490284081.1079010963, -1.1116,  0.2251, -0.1880, -1.9989,  1.2207, -5.1117
1490284081.1079709530,1490284081.1102540493, -1.1116,  0.2251, -0.1880, -1.9989,  1.2207, -5.1117
1490284081.1103239059,1490284081.1127369404, -1.1116,  0.2251, -0.1880, -2.2736,  1.0834, -5.3558
1490284081.1128070354,1490284081.1150920391, -1.1116,  0.2251, -0.1880, -2.2736,  1.0834, -5.3558
1490284081.1151609421,1490284081.1174449921, -1.1116,  0.2214, -0.1960, -2.2736,  1.0834, -5.3558
1490284081.1175138950,1490284081.1197969913, -1.1016,  0.2214, -0.1960, -2.2736,  1.0834, -5.3558
1490284081.1198649406,1490284081.1221919060, -1.1016,  0.2214, -0.1960, -2.2736,  1.0834, -5.5695
1490284081.1222620010,1490284081.1246700287, -1.1016,  0.2214, -0.1960, -2.4872,  1.3275, -5.5695
1490284081.1247410774,1490284081.1271469593, -1.1016,  0.2214, -0.1960, -2.4872,  1.3275, -5.5695
1490284081.1272170544,1490284081.1296300888, -1.1016,  0.2214, -0.1960, -2.4872,  1.3275, -5.5695
1490284081.1296999454,1490284081.1321198940, -1.1016,  0.2214, -0.1960, -2.4872,  1.3275, -5.5695
1490284081.1321909428,1490284081.1345989704, -1.1016,  0.2214, -0.1960, -3.0365,  1.4191, -5.1880
1490284081.1346681118,1490284081.1370809078, -1.1016,  0.2214, -0.2065, -3.0365,  1.4191, -5.1880
1490284081.1371500492,1490284081.1395659447, -1.1079,  0.2224, -0.2065, -3.0365,  1.4191, -5.1880
1490284081.1396360397,1490284081.1420569420, -1.1079,  0.2224, -0.2065, -3.0365,  1.4191, -5.1880
1490284081.1421270370,1490284081.1445369720, -1.1079,  0.2224, -0.2065, -2.4872,  1.2360, -5.1727
1490284081.1446061134,1490284081.1470119953, -1.1079,  0.2224, -0.2065, -2.4872,  1.2360, -5.1727
1490284081.1470820904,1490284081.1494939327, -1.1079,  0.2224, -0.2065, -2.4872,  1.2360, -5.1727
1490284081.1495630741,1490284081.1519761086, -1.1079,  0.2224, -0.2065, -2.4872,  1.2360, -5.1727
1490284081.1520900726,1490284081.1545019150, -1.1079,  0.2224, -0.2065, -2.6855,  1.4038, -4.8065
1490284081.1545710564,1490284081.1569828987, -1.1079,  0.2224, -0.1978, -2.6855,  1.4038, -4.8065
1490284081.1570520401,1490284081.1594650745, -1.0981,  0.2195, -0.1978, -2.6855,  1.4038, -4.8065
1490284081.1595349312,1490284081.1619501114, -1.0981,  0.2195, -0.1978, -2.6855,  1.4038, -4.8065
1490284081.1620709896,1490284081.1643569469, -1.0981,  0.2195, -0.1978, -2.6855,  1.4038, -4.5319
1490284081.1644260883,1490284081.1667070389, -1.0981,  0.2195, -0.1978, -2.7008,  1.7090, -4.5319
1490284081.1667768955,1490284081.1690690517, -1.0981,  0.2195, -0.1978, -2.7008,  1.7090, -4.5319
1490284081.1691379547,1490284081.1714179516, -1.0981,  0.2195, -0.1978, -2.7008,  1.7090, -4.5319
1490284081.1714880466,1490284081.1738779545, -1.0981,  0.2195, -0.1978, -2.7008,  1.7090, -4.5319
1490284081.1739480495,1490284081.1763639450, -1.0981,  0.2195, -0.1978, -2.7924,  1.3733, -4.5166
1490284081.1765439510,1490284081.1789500713, -1.0994,  0.2236, -0.2126, -2.7924,  1.3733, -4.5166
1490284081.1790199280,1490284081.1814329624, -1.0994,  0.2236, -0.2126, -2.7924,  1.3733, -4.5166
1490284081.1815030575,1490284081.1839179993, -1.0994,  0.2236, -0.2126, -2.7924,  1.3733, -4.5166
1490284081.1839880943,1490284081.1863889694, -1.0994,  0.2236, -0.2126, -2.7618,  1.3123, -4.5013
1490284081.1864590645,1490284081.1888699532, -1.0994,  0.2236, -0.2126, -2.7618,  1.3123, -4.5013
1490284081.1889400482,1490284081.1913468838, -1.0994,  0.2236, -0.2126, -2.7618,  1.3123, -4.5013
1490284081.1914150715,1490284081.1938378811, -1.0994,  0.2236, -0.2126, -2.7618,  1.3123, -4.5013
1490284081.1939079762,1490284081.1963219643, -1.0994,  0.2236, -0.2126, -2.7618,  1.3885, -4.6997
1490284081.1963920593,1490284081.1988029480, -1.1174,  0.2290, -0.1890, -2.7466,  1.3885, -4.6997
1490284081.1988739967,1490284081.2012839317, -1.1174,  0.2290, -0.1890, -2.7466,  1.3885, -4.6997
1490284081.2013540268,1490284081.2037620544, -1.1174,  0.2290, -0.1890, -2.7466,  1.3885, -4.6997
1490284081.2038331032,1490284081.2062349319, -1.1174,  0.2290, -0.1890, -2.7466,  1.3885, -4.6997
1490284081.2063050270,1490284081.2087199688, -1.1174,  0.2290, -0.1890, -2.8381,  1.4038, -4.8370
1490284081.2087900639,1490284081.2112009525, -1.1174,  0.2290, -0.1890, -2.8381,  1.4038, -4.8370
1490284081.2112710476,1490284081.2136049271, -1.1174,  0.2290, -0.1890, -2.8381,  1.4038, -4.8370
1490284081.2136750221,1490284081.2159640789, -1.1174,  0.2290, -0.1890, -2.8381,  1.4038, -4.8370
1490284081.2160329819,1490284081.2183129787, -1.1135,  0.2185, -0.2227, -2.9602,  1.4038, -4.8828
1490284081.2183818817,1490284081.2206709385, -1.1135,  0.2185, -0.2227, -2.9602,  1.4038, -4.8828
1490284081.2207400799,1490284081.2230939865, -1.1135,  0.2185, -0.2227, -2.9602,  1.4038, -4.8828
1490284081.2231628895,1490284081.2255659103, -1.1135,  0.2185, -0.2227, -2.9602,  1.4038, -4.8828
1490284081.2256360054,1490284081.2280499935, -1.1135,  0.2185, -0.2227, -2.9602,  1.4191, -4.8065
1490284081.2281188965,1490284081.2305250168, -1.1135,  0.2185, -0.2227, -3.3417,  1.4191, -4.8065
1490284081.2305951118,1490284081.2330670357, -1.1135,  0.2185, -0.2227, -3.3417,  1.4191, -4.8065
1490284081.2331368923,1490284081.2355499268, -1.1135,  0.2185, -0.2227, -3.3417,  1.4191, -4.8065
1490284081.2356200218,1490284081.2380259037, -1.1184,  0.2214, -0.2002, -3.3417,  1.4191, -4.6844
1490284081.2380959988,1490284081.2405130863, -1.1184,  0.2214, -0.2002, -2.8687,  1.7548, -4.6844
1490284081.2405829430,1490284081.2430400848, -1.1184,  0.2214, -0.2002, -2.8687,  1.7548, -4.6844
1490284081.2431108952,1490284081.2455179691, -1.1184,  0.2214, -0.2002, -2.8687,  1.7548, -4.6844
1490284081.2455880642,1490284081.2480010986, -1.1184,  0.2214, -0.2002, -2.8687,  1.7548, -4.6844
1490284081.2480709553,1490284081.2504808903, -1.1184,  0.2214, -0.2002, -2.9907,  1.4648, -4.8218
1490284081.2505500317,1490284081.2529599667, -1.1184,  0.2214, -0.2002, -2.9907,  1.4648, -4.8218
1490284081.2530300617,1490284081.2554430962, -1.1184,  0.2214, -0.2002, -2.9907,  1.4648, -4.8218
1490284081.2555129528,1490284081.2579209805, -1.1028,  0.2283, -0.2034, -2.9907,  1.4648, -4.8218
1490284081.2579910755,1490284081.2604069710, -1.1028,  0.2283, -0.2034, -2.3041,  1.7242, -4.7913
1490284081.2604761124,1490284081.2628560066, -1.1028,  0.2283, -0.2034, -2.3041,  1.7242, -4.7913
1490284081.2629261017,1490284081.2652111053, -1.1028,  0.2283, -0.2034, -2.3041,  1.7242, -4.7913
1490284081.2652800083,1490284081.2675640583, -1.1028,  0.2283, -0.2034, -2.3041,  1.7242, -4.7913
1490284081.2676329613,1490284081.2699160576, -1.1028,  0.2283, -0.2034, -2.3041,  1.7242, -4.6234
1490284081.2699859142,1490284081.2723031044, -1.1028,  0.2283, -0.2034, -2.5635,  1.9684, -4.6234
1490284081.2723729610,1490284081.2747859955, -1.1028,  0.2283, -0.2034, -2.5635,  1.9684, -4.6234
1490284081.2748560905,1490284081.2772629261, -1.1028,  0.2283, -0.1992, -2.5635,  1.9684, -4.6234
1490284081.2773330212,1490284081.2797439098, -1.1035,  0.2227, -0.1992, -2.5635,  1.9684, -4.6234
1490284081.2799251080,1490284081.2823460102, -1.1035,  0.2227, -0.1992, -3.1433,  2.2888, -4.2419
1490284081.2824161053,1490284081.2848260403, -1.1035,  0.2227, -0.1992, -3.1433,  2.2888, -4.2419
1490284081.2848949432,1490284081.2873051167, -1.1035,  0.2227, -0.1992, -3.1433,  2.2888, -4.2419
1490284081.2873749733,1490284081.2897830009, -1.1035,  0.2227, -0.1992, -3.1433,  2.2888, -4.2419
1490284081.2898530960,1490284081.2922720909, -1.1035,  0.2227, -0.1992, -3.3112,  2.0599, -4.3335
1490284081.2923409939,1490284081.2947540283, -1.1035,  0.2227, -0.1992, -3.3112,  2.0599, -4.3335
1490284081.2948238850,1490284081.2972319126, -1.1035,  0.2227, -0.2046, -3.3112,  2.0599, -4.3335
1490284081.2973029613,1490284081.2997169495, -1.1030,  0.2207, -0.2046, -3.3112,  2.0599, -4.3335
1490284081.2997870445,1490284081.3022470474, -1.1030,  0.2207, -0.2046, -3.3112,  1.8005, -4.5776
1490284081.3023169041,1490284081.3047258854, -1.1030,  0.2207, -0.2046, -3.1128,  1.8005, -4.5776
1490284081.3047950268,1490284081.3072140217, -1.1030,  0.2207, -0.2046, -3.1128,  1.8005, -4.5776
1490284081.3072841167,1490284081.3096950054, -1.1030,  0.2207, -0.2046, -3.1128,  1.8005, -4.5776
1490284081.3097639084,1490284081.3122060299, -1.1030,  0.2207, -0.2046, -3.1128,  1.8005, -4.4098
1490284081.3122749329,1490284081.3145649433, -1.1030,  0.2207, -0.2046, -3.4637,  2.1210, -4.4098
1490284081.3146350384,1490284081.3169250488, -1.1030,  0.2207, -0.2148, -3.4637,  2.1210, -4.4098
1490284081.3169939518,1490284081.3192811012, -1.1055,  0.2234, -0.2148, -3.4637,  2.1210, -4.4098
1490284081.3193509579,1490284081.3216369152, -1.1055,  0.2234, -0.2148, -3.4637,  2.1210, -4.4098
1490284081.3217070103,1490284081.3240959644, -1.1055,  0.2234, -0.2148, -3.2654,  2.0752, -4.6844
1490284081.3241660595,1490284081.3265640736, -1.1055,  0.2234, -0.2148, -3.2654,  2.0752, -4.6844
1490284081.3266339302,1490284081.3290209770, -1.1055,  0.2234, -0.2148, -3.2654,  2.0752, -4.6844
1490284081.3290910721,1490284081.3314781189, -1.1055,  0.2234, -0.2148, -3.2654,  2.0752, -4.6844
1490284081.3315479755,1490284081.3339478970, -1.1055,  0.2234, -0.2148, -3.2196,  2.1210, -4.9438
1490284081.3340179920,1490284081.3364078999, -1.1055,  0.2234, -0.2148, -3.2196,  2.1210, -4.9438
1490284081.3364779949,1490284081.3388750553, -1.1074,  0.2327, -0.2041, -3.2196,  2.1210, -4.9438
1490284081.3389449120,1490284081.3413429260, -1.1074,  0.2327, -0.2041, -3.2196,  2.1210, -4.9438
1490284081.3414139748,1490284081.3438150883, -1.1074,  0.2327, -0.2041, -3.2196,  2.1210, -4.6692
1490284081.3438839912,1490284081.3462839127, -1.1074,  0.2327, -0.2041, -3.7079,  2.1973, -4.6692
1490284081.3463530540,1490284081.3487439156, -1.1074,  0.2327, -0.2041, -3.7079,  2.1973, -4.6692
1490284081.3488140106,1490284081.3512029648, -1.1074,  0.2327, -0.2041, -3.7079,  2.1973, -4.6692
1490284081.3512740135,1490284081.3536639214, -1.1074,  0.2327, -0.2041, -3.7079,  2.1973, -4.6692
1490284081.3537330627,1490284081.3561050892, -1.1074,  0.2327, -0.2041, -3.2501,  1.8768, -4.7150
1490284081.3561739922,1490284081.3585450649, -1.1023,  0.2314, -0.2100, -3.2501,  1.8768, -4.7150
1490284081.3586149216,1490284081.3609790802, -1.1023,  0.2314, -0.2100, -3.2501,  1.8768, -4.7150
1490284081.3610489368,1490284081.3634409904, -1.1023,  0.2314, -0.2100, -3.2501,  1.8768, -4.7150
1490284081.3635110855,1490284081.3658061028, -1.1023,  0.2314, -0.2100, -2.7771,  2.3956, -5.0812
1490284081.3658759594,1490284081.3681530952, -1.1023,  0.2314, -0.2100, -2.7771,  2.3956, -5.0812
1490284081.3682229519,1490284081.3705039024, -1.1023,  0.2314, -0.2100, -2.7771,  2.3956, -5.0812
1490284081.3705730438,1490284081.3729801178, -1.1023,  0.2314, -0.2100, -2.7771,  2.3956, -5.0812
1490284081.3730499744,1490284081.3753249645, -1.1023,  0.2314, -0.2100, -2.7771,  2.3956, -5.0049
1490284081.3753950596,1490284081.3776810169, -1.1023,  0.2209, -0.1985, -2.7008,  2.0447, -5.0049
1490284081.3777511120,1490284081.3800249100, -1.0955,  0.2209, -0.1985, -2.7008,  2.0447, -5.0049
1490284081.3800959587,1490284081.3824439049, -1.0955,  0.2209, -0.1985, -2.7008,  2.0447, -5.0049
1490284081.3826200962,1490284081.3850359917, -1.0955,  0.2209, -0.1985, -2.7008,  2.0447, -5.0049
1490284081.3851070404,1490284081.3875129223, -1.0955,  0.2209, -0.1985, -2.6398,  1.8616, -4.3793
1490284081.3875830173,1490284081.3899919987, -1.0955,  0.2209, -0.1985, -2.6398,  1.8616, -4.3793
1490284081.3900620937,1490284081.3924860954, -1.0955,  0.2209, -0.1985, -2.6398,  1.8616, -4.3793
1490284081.3925559521,1490284081.3949630260, -1.0955,  0.2209, -0.1985, -2.6398,  1.8616, -4.3793
1490284081.3950340748,1490284081.3974509239, -1.0955,  0.2209, -0.2019, -2.8229,  2.2736, -4.3182
1490284081.3975200653,1490284081.3999218941, -1.1184,  0.2217, -0.2019, -2.8229,  2.2736, -4.3182
1490284081.3999919891,1490284081.4024410248, -1.1184,  0.2217, -0.2019, -2.8229,  2.2736, -4.3182
1490284081.4025108814,1490284081.4049201012, -1.1184,  0.2217, -0.2019, -2.8229,  2.2736, -4.3182
1490284081.4049899578,1490284081.4073998928, -1.1184,  0.2217, -0.2019, -2.8229,  2.2736, -4.9438
1490284081.4074690342,1490284081.4098761082, -1.1184,  0.2217, -0.2019, -2.1667,  2.5940, -4.9438
1490284081.4099450111,1490284081.4123370647, -1.1184,  0.2217, -0.2019, -2.1667,  2.5940, -4.9438
1490284081.4124069214,1490284081.4146890640, -1.1184,  0.2217, -0.2019, -2.1667,  2.5940, -4.9438
1490284081.4147589207,1490284081.4170379639, -1.1184,  0.2217, -0.2065, -2.1667,  2.5940, -4.9438
1490284081.4171071053,1490284081.4193921089, -1.1147,  0.2297, -0.2065, -1.5259,  2.0294, -5.2185
1490284081.4194610119,1490284081.4217391014, -1.1147,  0.2297, -0.2065, -1.5259,  2.0294, -5.2185
1490284081.4218089581,1490284081.4242539406, -1.1147,  0.2297, -0.2065, -1.5259,  2.0294, -5.2185
1490284081.4243230820,1490284081.4267230034, -1.1147,  0.2297, -0.2065, -1.5259,  2.0294, -5.2185
1490284081.4267919064,1490284081.4291958809, -1.1147,  0.2297, -0.2065, -1.9379,  1.8311, -5.3101
1490284081.4292669296,1490284081.4316780567, -1.1147,  0.2297, -0.2065, -1.9379,  1.8311, -5.3101
1490284081.4317479134,1490284081.4341619015, -1.1147,  0.2297, -0.2065, -1.9379,  1.8311, -5.3101
1490284081.4342329502,1490284081.4366440773, -1.1147,  0.2297, -0.2065, -1.9379,  1.8311, -5.3101
1490284081.4367139339,1490284081.4391219616, -1.1050,  0.2275, -0.2244, -1.9379,  1.8311, -5.4016
1490284081.4391920567,1490284081.4415960312, -1.1050,  0.2275, -0.2244, -1.6785,  1.9531, -5.4016
1490284081.4416658878,1490284081.4440870285, -1.1050,  0.2275, -0.2244, -1.6785,  1.9531, -5.4016
1490284081.4441568851,1490284081.4465639591, -1.1050,  0.2275, -0.2244, -1.6785,  1.9531, -5.4016
1490284081.4466331005,1490284081.4490399361, -1.1050,  0.2275, -0.2244, -1.6785,  1.9531, -5.4016
1490284081.4491100311,1490284081.4515221119, -1.1050,  0.2275, -0.2244, -1.0681,  1.9226, -5.6915
1490284081.4515929222,1490284081.4540429115, -1.1050,  0.2275, -0.2244, -1.0681,  1.9226, -5.6915
1490284081.4541120529,1490284081.4565269947, -1.1050,  0.2275, -0.2244, -1.0681,  1.9226, -5.6915
1490284081.4565970898,1490284081.4590010643, -1.0876,  0.2244, -0.2000, -1.0681,  1.9226, -5.6915
1490284081.4590699673,1490284081.4614748955, -1.0876,  0.2244, -0.2000, -1.4038,  2.3346, -5.3253
1490284081.4615449905,1490284081.4638628960, -1.0876,  0.2244, -0.2000, -1.4038,  2.3346, -5.3253
1490284081.4639339447,1490284081.4662160873, -1.0876,  0.2244, -0.2000, -1.4038,  2.3346, -5.3253
1490284081.4662849903,1490284081.4685649872, -1.0876,  0.2244, -0.2000, -1.4038,  2.3346, -5.3253
1490284081.4686350822,1490284081.4709229469, -1.0876,  0.2244, -0.2000, -1.4038,  2.3346, -5.0812
1490284081.4709930420,1490284081.4733541012, -1.0876,  0.2244, -0.2000, -1.4496,  2.1973, -5.0812
1490284081.4734239578,1490284081.4758388996, -1.0876,  0.2244, -0.2000, -1.4496,  2.1973, -5.0812
1490284081.4759080410,1490284081.4783160686, -1.1072,  0.2283, -0.1880, -1.4496,  2.1973, -5.0812
1490284081.4783859253,1490284081.4807870388, -1.1072,  0.2283, -0.1880, -1.4496,  2.1973, -5.0812
1490284081.4808568954,1490284081.4832849503, -1.1072,  0.2283, -0.1880, -0.5341,  2.8381, -5.3558
1490284081.4833569527,1490284081.4857709408, -1.1072,  0.2283, -0.1880, -0.5341,  2.8381, -5.3558
1490284081.4859490395,1490284081.4883608818, -1.1072,  0.2283, -0.1880, -0.5341,  2.8381, -5.3558
1490284081.4884319305,1490284081.4908449650, -1.1072,  0.2283, -0.1880, -0.5341,  2.8381, -5.3558
1490284081.4909169674,1490284081.4933419228, -1.1072,  0.2283, -0.1880, -1.0376,  2.7161, -5.3253
1490284081.4934129715,1490284081.4958291054, -1.1072,  0.2283, -0.1880, -1.0376,  2.7161, -5.3253
1490284081.4958989620,1490284081.4983150959, -1.1213,  0.2192, -0.2024, -1.0376,  2.7161, -5.3253
1490284081.4983849525,1490284081.5007939339, -1.1213,  0.2192, -0.2024, -1.0376,  2.7161, -5.3253
1490284081.5008640289,1490284081.5032310486, -1.1213,  0.2192, -0.2024, -1.3123,  3.0365, -5.5237
1490284081.5033009052,1490284081.5055880547, -1.1213,  0.2192, -0.2024, -1.3123,  3.0365, -5.5237
1490284081.5056569576,1490284081.5079410076, -1.1213,  0.2192, -0.2024, -1.3123,  3.0365, -5.5237
1490284081.5080099106,1490284081.5102949142, -1.1213,  0.2192, -0.2024, -1.3123,  3.0365, -5.5237
1490284081.5103640556,1490284081.5126740932, -1.1213,  0.2192, -0.2024, -1.3123,  3.0365, -5.5237
1490284081.5127439499,1490284081.5150310993, -1.1213,  0.2192, -0.2024, -1.7090,  3.6469, -4.8523
1490284081.5151009560,1490284081.5173869133, -1.1213,  0.2192, -0.2144, -1.7090,  3.6469, -4.8523
1490284081.5174579620,1490284081.5197360516, -1.1172,  0.2161, -0.2144, -1.7090,  3.6469, -4.8523
1490284081.5198059082,1490284081.5220890045, -1.1172,  0.2161, -0.2144, -1.7090,  3.6469, -4.8523
1490284081.5221600533,1490284081.5244429111, -1.1172,  0.2161, -0.2144, -2.1973,  3.9062, -4.6082
1490284081.5245120525,1490284081.5267939568, -1.1172,  0.2161, -0.2144, -2.1973,  3.9062, -4.6082
1490284081.5268640518,1490284081.5291469097, -1.1172,  0.2161, -0.2144, -2.1973,  3.9062, -4.6082
1490284081.5292160511,1490284081.5314950943, -1.1172,  0.2161, -0.2144, -2.1973,  3.9062, -4.6082
1490284081.5315639973,1490284081.5339601040, -1.1172,  0.2161, -0.2144, -2.1973,  3.9062, -3.5858
1490284081.5340299606,1490284081.5364339352, -1.1172,  0.2161, -0.2144, -1.8158,  3.8452, -3.5858
1490284081.5365040302,1490284081.5391030312, -1.1252,  0.2175, -0.2029, -1.8158,  3.8452, -3.5858
1490284081.5391759872,1490284081.5414540768, -1.1252,  0.2175, -0.2029, -1.8158,  3.8452, -3.5858
1490284081.5415239334,1490284081.5438959599, -1.1252,  0.2175, -0.2029, -1.8158,  3.8452, -3.5858
1490284081.5439660549,1490284081.5462429523, -1.1252,  0.2175, -0.2029, -1.6022,  4.0436, -3.3569
1490284081.5463120937,1490284081.5485908985, -1.1252,  0.2175, -0.2029, -1.6022,  4.0436, -3.3569
1490284081.5486600399,1490284081.5509350300, -1.1252,  0.2175, -0.2029, -1.6022,  4.0436, -3.3569
1490284081.5510048866,1490284081.5532920361, -1.1252,  0.2175, -0.2029, -1.6022,  4.0436, -3.3569
1490284081.5533618927,1490284081.5556409359, -1.1252,  0.2175, -0.2029, -1.6022,  4.7913, -3.5095
1490284081.5557110310,1490284081.5579888821, -1.1252,  0.2119, -0.2117, -1.8463,  4.7913, -3.5095
1490284081.5580580235,1490284081.5603408813, -1.1370,  0.2119, -0.2117, -1.8463,  4.7913, -3.5095
1490284081.5604109764,1490284081.5627379417, -1.1370,  0.2119, -0.2117, -1.8463,  4.7913, -3.5095
1490284081.5628089905,1490284081.5652179718, -1.1370,  0.2119, -0.2117, -1.8463,  4.7913, -3.5095
1490284081.5652880669,1490284081.5676980019, -1.1370,  0.2119, -0.2117, -1.7395,  5.3253, -3.8147
1490284081.5677680969,1490284081.5701749325, -1.1370,  0.2119, -0.2117, -1.7395,  5.3253, -3.8147
1490284081.5702450275,1490284081.5726358891, -1.1370,  0.2119, -0.2117, -1.7395,  5.3253, -3.8147
1490284081.5727059841,1490284081.5749900341, -1.1370,  0.2119, -0.2117, -1.7395,  5.3253, -3.8147
1490284081.5750598907,1490284081.5773420334, -1.1370,  0.2119, -0.2056, -1.9836,  5.2948, -2.6855
1490284081.5774109364,1490284081.5796980858, -1.1345,  0.2009, -0.2056, -1.9836,  5.2948, -2.6855
1490284081.5797679424,1490284081.5820820332, -1.1345,  0.2009, -0.2056, -1.9836,  5.2948, -2.6855
1490284081.5821518898,1490284081.5844359398, -1.1345,  0.2009, -0.2056, -1.9836,  5.2948, -2.6855
1490284081.5845060349,1490284081.5867879391, -1.1345,  0.2009, -0.2056, -1.9836,  5.2948, -1.9684
1490284081.5869729519,1490284081.5892570019, -1.1345,  0.2009, -0.2056, -2.5787,  5.7373, -1.9684
1490284081.5893270969,1490284081.5916070938, -1.1345,  0.2009, -0.2056, -2.5787,  5.7373, -1.9684
1490284081.5916750431,1490284081.5940790176, -1.1345,  0.2009, -0.2056, -2.5787,  5.7373, -1.9684
1490284081.5941491127,1490284081.5965580940, -1.1345,  0.2009, -0.2056, -2.5787,  5.7373, -1.9684
1490284081.5966269970,1490284081.5990390778, -1.1313,  0.2112, -0.1917, -2.7313,  6.3934, -1.0071
1490284081.5991098881,1490284081.6015219688, -1.1313,  0.2112, -0.1917, -2.7313,  6.3934, -1.0071
1490284081.6015920639,1490284081.6040389538, -1.1313,  0.2112, -0.1917, -2.7313,  6.3934, -1.0071
1490284081.6041090488,1490284081.6065180302, -1.1313,  0.2112, -0.1917, -2.7313,  6.3934, -1.0071
1490284081.6065878868,1490284081.6089971066, -1.1313,  0.2112, -0.1917, -2.4872,  6.6833, -0.5951
1490284081.6090669632,1490284081.6114799976, -1.1313,  0.2112, -0.1917, -2.4872,  6.6833, -0.5951
1490284081.6115500927,1490284081.6139650345, -1.1313,  0.2112, -0.1917, -2.4872,  6.6833, -0.5951
1490284081.6140348911,1490284081.6164460182, -1.1313,  0.2112, -0.1917, -2.4872,  6.6833, -0.5951
1490284081.6165161133,1490284081.6189179420, -1.1184,  0.2178, -0.1973, -2.4872,  6.6833, -0.4730
1490284081.6189880371,1490284081.6213929653, -1.1184,  0.2178, -0.1973, -3.4332,  7.3090, -0.4730
1490284081.6214630604,1490284081.6237928867, -1.1184,  0.2178, -0.1973, -3.4332,  7.3090, -0.4730
1490284081.6238639355,1490284081.6261498928, -1.1184,  0.2178, -0.1973, -3.4332,  7.3090, -0.4730
1490284081.6262209415,1490284081.6285009384, -1.1184,  0.2178, -0.1973, -3.4332,  7.3090, -0.4730
1490284081.6285710335,1490284081.6308538914, -1.1184,  0.2178, -0.1973, -3.9062,  7.7972, -0.0916
1490284081.6309249401,1490284081.6332149506, -1.1184,  0.2178, -0.1973, -3.9062,  7.7972, -0.0916
1490284081.6332869530,1490284081.6355690956, -1.1184,  0.2178, -0.1973, -3.9062,  7.7972, -0.0916
1490284081.6356399059,1490284081.6379199028, -1.1184,  0.2341, -0.1980, -3.9062,  7.7972, -0.0916
1490284081.6379909515,1490284081.6402781010, -1.1140,  0.2341, -0.1980, -7.8125,  7.9956, -0.2136
1490284081.6403489113,1490284081.6426870823, -1.1140,  0.2341, -0.1980, -4.4861,  7.9956, -0.2136
1490284081.6427578926,1490284081.6451640129, -1.1140,  0.2341, -0.1980, -4.4861,  7.9956, -0.2136
1490284081.6452350616,1490284081.6476409435, -1.1140,  0.2341, -0.1980, -4.4861,  7.9956, -0.2136
1490284081.6477110386,1490284081.6501190662, -1.1140,  0.2341, -0.1980, -4.4861,  7.9956, -0.2136
1490284081.6501889229,1490284081.6526410580, -1.1140,  0.2341, -0.1980, -4.5471,  8.6365, -0.5646
1490284081.6527140141,1490284081.6551189423, -1.1140,  0.2341, -0.1980, -4.5471,  8.6365, -0.5646
1490284081.6551918983,1490284081.6575999260, -1.1140,  0.2341, -0.2170, -4.5471,  8.6365, -0.5646
1490284081.6576719284,1490284081.6600780487, -1.1194,  0.2422, -0.2170, -4.5471,  8.6365, -0.5646
1490284081.6601490974,1490284081.6625590324, -1.1194,  0.2422, -0.2170, -4.1046,  8.7128, -1.1597
1490284081.6626300812,1490284081.6650390625, -1.1194,  0.2422, -0.2170, -4.1046,  8.7128, -1.1597
1490284081.6651089191,1490284081.6675169468, -1.1194,  0.2422, -0.2170, -4.1046,  8.7128, -1.1597
1490284081.6675870419,1490284081.6699969769, -1.1194,  0.2422, -0.2170, -4.1046,  8.7128, -1.1597
1490284081.6700680256,1490284081.6724710464, -1.1194,  0.2422, -0.2170, -3.3417,  9.3079, -1.8463
1490284081.6725409031,1490284081.6748330593, -1.1194,  0.2422, -0.2170, -3.3417,  9.3079, -1.8463
1490284081.6749029160,1490284081.6771879196, -1.1194,  0.2422, -0.2170, -3.3417,  9.3079, -1.8463
1490284081.6772580147,1490284081.6795361042, -1.1006,  0.2307, -0.2175, -3.3417,  9.3079, -1.8463
1490284081.6796069145,1490284081.6818900108, -1.1006,  0.2307, -0.2175, -3.3417,  9.3079, -2.0142
1490284081.6819601059,1490284081.6843719482, -1.1006,  0.2307, -0.2175, -3.0670,  9.5825, -2.0142
1490284081.6844429970,1490284081.6868500710, -1.1006,  0.2307, -0.2175, -3.0670,  9.5825, -2.0142
1490284081.6870300770,1490284081.6894381046, -1.1006,  0.2307, -0.2175, -3.0670,  9.5825, -2.0142
1490284081.6895089149,1490284081.6919109821, -1.1006,  0.2307, -0.2175, -3.0670,  9.5825, -2.0142
1490284081.6920270920,1490284081.6944339275, -1.1006,  0.2307, -0.2175, -3.2043,  9.7351, -2.3346
1490284081.6945040226,1490284081.6969110966, -1.1006,  0.2307, -0.2175, -3.2043,  9.7351, -2.3346
1490284081.6969819069,1490284081.6993839741, -1.1150,  0.2393, -0.2449, -3.2043,  9.7351, -2.3346
1490284081.6994550228,1490284081.7018609047, -1.1150,  0.2393, -0.2449, -3.2043,  9.7351, -2.3346
1490284081.7019319534,1490284081.7043380737, -1.1150,  0.2393, -0.2449, -3.9520,  9.1095, -2.5635
1490284081.7044088840,1490284081.7068130970, -1.1150,  0.2393, -0.2449, -3.9520,  9.1095, -2.5635
1490284081.7068839073,1490284081.7092950344, -1.1150,  0.2393, -0.2449, -3.9520,  9.1095, -2.5635
1490284081.7093648911,1490284081.7117691040, -1.1150,  0.2393, -0.2449, -3.9520,  9.1095, -2.5635
1490284081.7118411064,1490284081.7142589092, -1.1150,  0.2393, -0.2449, -3.9520,  9.7351, -3.0975
1490284081.7143299580,1490284081.7167339325, -1.1150,  0.2393, -0.2449, -4.4861,  9.7351, -3.0975
1490284081.7168049812,1490284081.7192080021, -1.0984,  0.2368, -0.2227, -4.4861,  9.7351, -3.0975
1490284081.7192790508,1490284081.7216870785, -1.0984,  0.2368, -0.2227, -4.4861,  9.7351, -3.0975
1490284081.7217578888,1490284081.7240569592, -1.0984,  0.2368, -0.2227, -4.4861,  9.7351, -3.0975
1490284081.7241280079,1490284081.7264149189, -1.0984,  0.2368, -0.2227, -4.5929, 10.3149, -3.4637
1490284081.7264900208,1490284081.7287778854, -1.0984,  0.2368, -0.2227, -4.5929, 10.3149, -3.4637
1490284081.7288510799,1490284081.7311348915, -1.0984,  0.2368, -0.2227, -4.5929, 10.3149, -3.4637
1490284081.7312080860,1490284081.7336289883, -1.0984,  0.2368, -0.2227, -4.5929, 10.3149, -3.4637
1490284081.7337028980,1490284081.7361080647, -1.0984,  0.2368, -0.2227, -5.1422,  9.9945, -3.6774
1490284081.7361791134,1490284081.7385840416, -1.0930,  0.2456, -0.2249, -5.1422,  9.9945, -3.6774
1490284081.7386550903,1490284081.7410609722, -1.0930,  0.2456, -0.2249, -5.1422,  9.9945, -3.6774
1490284081.7411320210,1490284081.7435500622, -1.0930,  0.2456, -0.2249, -5.1422,  9.9945, -3.6774
1490284081.7436220646,1490284081.7460370064, -1.0930,  0.2456, -0.2249, -5.1422, 10.1166, -4.0283
1490284081.7461109161,1490284081.7485280037, -1.0930,  0.2456, -0.2249, -5.0507, 10.1166, -4.0283
1490284081.7486019135,1490284081.7510108948, -1.0930,  0.2456, -0.2249, -5.0507, 10.1166, -4.0283
1490284081.7510850430,1490284081.7535099983, -1.0930,  0.2456, -0.2249, -5.0507, 10.1166, -4.0283
1490284081.7535839081,1490284081.7559978962, -1.0930,  0.2456, -0.2249, -5.0507, 10.1166, -4.7302
1490284081.7560720444,1490284081.7584838867, -1.0903,  0.2661, -0.2241, -4.4708, 10.4370, -4.7302
1490284081.7585570812,1490284081.7609701157, -1.0903,  0.2661, -0.2241, -4.4708, 10.4370, -4.7302
1490284081.7610430717,1490284081.7633919716, -1.0903,  0.2661, -0.2241, -4.4708, 10.4370, -4.7302
1490284081.7634658813,1490284081.7657470703, -1.0903,  0.2661, -0.2241, -4.4708, 10.4370, -4.7302
1490284081.7658190727,1490284081.7681028843, -1.0903,  0.2661, -0.2241, -3.4790, 10.6201, -5.3253
1490284081.7681760788,1490284081.7704548836, -1.0903,  0.2661, -0.2241, -3.4790, 10.6201, -5.3253
1490284081.7705290318,1490284081.7728450298, -1.0903,  0.2661, -0.2241, -3.4790, 10.6201, -5.3253
1490284081.7729189396,1490284081.7752020359, -1.0903,  0.2661, -0.2241, -3.4790, 10.6201, -5.3253
1490284081.7752759457,1490284081.7775580883, -1.0903,  0.2661, -0.2549, -3.4790, 10.5896, -5.9204
1490284081.7776319981,1490284081.7799129486, -1.0859,  0.2480, -0.2549, -2.4261, 10.5896, -5.9204
1490284081.7799870968,1490284081.7823100090, -1.0859,  0.2480, -0.2549, -2.4261, 10.5896, -5.9204
1490284081.7823829651,1490284081.7847878933, -1.0859,  0.2480, -0.2549, -2.4261, 10.5896, -5.9204
1490284081.7848620415,1490284081.7872710228, -1.0859,  0.2480, -0.2549, -2.4261, 10.5896, -5.9204
1490284081.7873449326,1490284081.7897469997, -1.0859,  0.2480, -0.2549, -2.5482, 10.4980, -6.2103
1490284081.7899351120,1490284081.7923479080, -1.0859,  0.2480, -0.2549, -2.5482, 10.4980, -6.2103
1490284081.7924220562,1490284081.7948288918, -1.0859,  0.2480, -0.2549, -2.5482, 10.4980, -6.2103
1490284081.7949020863,1490284081.7973089218, -1.0859,  0.2480, -0.1924, -2.5482, 10.4980, -6.2103
1490284081.7973821163,1490284081.7997889519, -1.0840,  0.2524, -0.2451, -2.3804, 10.6812, -6.4087
1490284081.7998640537,1490284081.8022780418, -1.0840,  0.2524, -0.2451, -2.3804, 10.6812, -6.4087
1490284081.8023519516,1490284081.8047618866, -1.0840,  0.2524, -0.2451, -2.3804, 10.6812, -6.4087
1490284081.8048360348,1490284081.8072431087, -1.0840,  0.2524, -0.2451, -2.3804, 10.6812, -6.4087
1490284081.8073160648,1490284081.8097190857, -1.0840,  0.2524, -0.2451, -2.1820, 10.6812, -6.4240
1490284081.8097929955,1490284081.8122398853, -1.0840,  0.2524, -0.2451, -2.1820, 10.6812, -6.4240
1490284081.8123140335,1490284081.8147199154, -1.0840,  0.2524, -0.2451, -2.1820, 10.6812, -6.4240
1490284081.8147940636,1490284081.8171999454, -1.0840,  0.2524, -0.2451, -2.1820, 10.6812, -6.4240
1490284081.8172740936,1490284081.8196790218, -1.0774,  0.2427, -0.2329, -2.1820, 10.6812, -6.6986
1490284081.8197529316,1490284081.8221549988, -1.0774,  0.2427, -0.2329, -1.7700, 10.2081, -6.6986
1490284081.8222289085,1490284081.8245151043, -1.0774,  0.2427, -0.2329, -1.7700, 10.2081, -6.6986
1490284081.8245890141,1490284081.8268740177, -1.0774,  0.2427, -0.2329, -1.7700, 10.2081, -6.6986
1490284081.8269469738,1490284081.8292260170, -1.0774,  0.2427, -0.2329, -1.7700, 10.2081, -6.6986
1490284081.8292989731,1490284081.8315820694, -1.0774,  0.2427, -0.2329, -1.6479, 10.6201, -6.8665
1490284081.8316550255,1490284081.8340709209, -1.0774,  0.2427, -0.2329, -1.6479, 10.6201, -6.8665
1490284081.8341450691,1490284081.8365509510, -1.0774,  0.2427, -0.2329, -1.6479, 10.6201, -6.8665
1490284081.8366250992,1490284081.8390340805, -1.0891,  0.2554, -0.2441, -1.6479, 10.6201, -6.8665
1490284081.8391070366,1490284081.8415169716, -1.0891,  0.2554, -0.2441, -0.7782, 11.0474, -7.0343
1490284081.8415920734,1490284081.8440449238, -1.0891,  0.2554, -0.2441, -0.7782, 11.0474, -7.0343
1490284081.8441190720,1490284081.8465330601, -1.0891,  0.2554, -0.2441, -0.7782, 11.0474, -7.0343
1490284081.8466079235,1490284081.8490169048, -1.0891,  0.2554, -0.2441, -0.7782, 11.0474, -7.0343
1490284081.8490910530,1490284081.8515019417, -1.0891,  0.2554, -0.2441, -0.7782, 10.9558, -7.2479
1490284081.8515760899,1490284081.8540270329, -1.0891,  0.2554, -0.2441, -0.7629, 10.9558, -7.2479
1490284081.8541009426,1490284081.8565070629, -1.0891,  0.2554, -0.2441, -0.7629, 10.9558, -7.2479
1490284081.8565800190,1490284081.8589890003, -1.0728,  0.2385, -0.2822, -0.7629, 10.9558, -7.2479
1490284081.8590641022,1490284081.8614759445, -1.0728,  0.2385, -0.2822, -0.7629, 10.9558, -7.2479
1490284081.8615500927,1490284081.8639791012, -1.0728,  0.2385, -0.2822, -0.3510, 10.9253, -7.2937
1490284081.8640539646,1490284081.8664619923, -1.0728,  0.2385, -0.2822, -0.3510, 10.9253, -7.2937
1490284081.8665380478,1490284081.8689439297, -1.0728,  0.2385, -0.2822, -0.3510, 10.9253, -7.2937
1490284081.8690180779,1490284081.8714249134, -1.0728,  0.2385, -0.2822, -0.3510, 10.9253, -7.2937
1490284081.8715000153,1490284081.8738319874, -1.0728,  0.2385, -0.2822, -0.5951, 11.1084, -7.7515
1490284081.8739058971,1490284081.8761880398, -1.0728,  0.2385, -0.2822, -0.5951, 11.1084, -7.7515
1490284081.8762629032,1490284081.8785469532, -1.0813,  0.2419, -0.2659, -0.5951, 11.1084, -7.7515
1490284081.8786199093,1490284081.8809010983, -1.0813,  0.2419, -0.2659, -0.5951, 11.1084, -7.7515
1490284081.8809759617,1490284081.8832569122, -1.0813,  0.2419, -0.2659, -0.5951, 10.6201, -8.3313
1490284081.8833329678,1490284081.8856151104, -1.0813,  0.2419, -0.2659, -0.4120, 10.6201, -8.3313
1490284081.8856890202,1490284081.8879730701, -1.0813,  0.2419, -0.2659, -0.4120, 10.6201, -8.3313
1490284081.8880469799,1490284081.8903310299, -1.0813,  0.2419, -0.2659, -0.4120, 10.6201, -8.3313
1490284081.8904058933,1490284081.8927459717, -1.0813,  0.2419, -0.2659, -0.4120, 10.6201, -8.3313
1490284081.8929309845,1490284081.8953399658, -1.0813,  0.2419, -0.2659, -0.3357, 10.7117, -8.5907
1490284081.8954150677,1490284081.8978219032, -1.0813,  0.2419, -0.2551, -0.3357, 10.7117, -8.5907
1490284081.8978960514,1490284081.9003019333, -1.0759,  0.2449, -0.2551, -0.3357, 10.7117, -8.5907
1490284081.9003779888,1490284081.9028298855, -1.0759,  0.2449, -0.2551, -0.3357, 10.7117, -8.5907
1490284081.9029049873,1490284081.9053120613, -1.0759,  0.2449, -0.2551,  0.3967, 10.7727, -9.0179
1490284081.9053869247,1490284081.9077908993, -1.0759,  0.2449, -0.2551,  0.3967, 10.7727, -9.0179
1490284081.9078650475,1490284081.9102740288, -1.0759,  0.2449, -0.2551,  0.3967, 10.7727, -9.0179
1490284081.9103488922,1490284081.9127609730, -1.0759,  0.2449, -0.2551,  0.3967, 10.7727, -9.0179
1490284081.9128360748,1490284081.9152441025, -1.0759,  0.2449, -0.2551,  1.0834, 11.4746, -9.2773
1490284081.9153180122,1490284081.9177238941, -1.0759,  0.2449, -0.2634,  1.0834, 11.4746, -9.2773
1490284081.9177980423,1490284081.9202060699, -1.0945,  0.2415, -0.2634,  1.0834, 11.4746, -9.2773
1490284081.9202799797,1490284081.9226939678, -1.0945,  0.2415, -0.2634,  1.0834, 11.4746, -9.2773
1490284081.9227669239,1490284081.9251730442, -1.0945,  0.2415, -0.2634,  1.0834, 11.4746, -9.5978
1490284081.9252469540,1490284081.9276480675, -1.0945,  0.2415, -0.2634,  1.6937, 10.9558, -9.5978
1490284081.9277229309,1490284081.9301259518, -1.0945,  0.2415, -0.2634,  1.6937, 10.9558, -9.5978
1490284081.9302000999,1490284081.9326159954, -1.0945,  0.2415, -0.2634,  1.6937, 10.9558, -9.5978
1490284081.9326899052,1490284081.9349689484, -1.0945,  0.2415, -0.2634,  1.6937, 10.9558, -9.5978
1490284081.9350419044,1490284081.9373219013, -1.0945,  0.2415, -0.2634,  1.3733, 11.2305, -9.5825
1490284081.9373960495,1490284081.9396779537, -1.1035,  0.2314, -0.3074,  1.3733, 11.2305, -9.5825
1490284081.9397521019,1490284081.9420878887, -1.1035,  0.2314, -0.3074,  1.3733, 11.2305, -9.5825
1490284081.9421620369,1490284081.9445669651, -1.1035,  0.2314, -0.3074,  1.3733, 11.2305, -9.5825
1490284081.9446430206,1490284081.9470489025, -1.1035,  0.2314, -0.3074,  1.0681, 11.3678, -9.6436
1490284081.9471240044,1490284081.9495329857, -1.1035,  0.2314, -0.3074,  1.0681, 11.3678, -9.6436
1490284081.9496080875,1490284081.9520280361, -1.1035,  0.2314, -0.3074,  1.0681, 11.3678, -9.6436
1490284081.9521028996,1490284081.9545099735, -1.1035,  0.2314, -0.3074,  1.0681, 11.3678, -9.6436
1490284081.9545838833,1490284081.9569909573, -1.1035,  0.2314, -0.3074,  1.0681, 15.2740, -9.0942
1490284081.9570660591,1490284081.9594750404, -1.1113,  0.2268, -0.2705,  1.3275, 11.9476, -9.0942
1490284081.9595479965,1490284081.9619541168, -1.1113,  0.2268, -0.2705,  1.3275, 11.9476, -9.0942
1490284081.9620831013,1490284081.9644939899, -1.1113,  0.2268, -0.2705,  1.3275, 11.9476, -9.0942
1490284081.9645678997,1490284081.9669740200, -1.1113,  0.2268, -0.2705,  1.3275, 11.9476, -9.0942
1490284081.9670479298,1490284081.9694550037, -1.1113,  0.2268, -0.2705,  1.2054, 11.8408, -8.6365
1490284081.9695301056,1490284081.9719419479, -1.1113,  0.2268, -0.2705,  1.2054, 11.8408, -8.6365
1490284081.9720659256,1490284081.9744739532, -1.1113,  0.2268, -0.2705,  1.2054, 11.8408, -8.6365
1490284081.9745481014,1490284081.9769589901, -1.1113,  0.2268, -0.2705,  1.2054, 11.8408, -8.6365
1490284081.9770340919,1490284081.9794390202, -1.1248,  0.2148, -0.2966,  1.6327, 12.4359, -8.2397
1490284081.9795129299,1490284081.9819190502, -1.1248,  0.2148, -0.2966,  1.6327, 12.4359, -8.2397
1490284081.9820439816,1490284081.9843330383, -1.1248,  0.2148, -0.2966,  1.6327, 12.4359, -8.2397
1490284081.9844069481,1490284081.9866929054, -1.1248,  0.2148, -0.2966,  1.6327, 12.4359, -8.2397
1490284081.9867670536,1490284081.9890511036, -1.1248,  0.2148, -0.2966,  1.6327, 12.9089, -7.1564
1490284081.9891240597,1490284081.9914131165, -1.1248,  0.2148, -0.2966,  1.8311, 12.9089, -7.1564
1490284081.9914860725,1490284081.9938740730, -1.1248,  0.2148, -0.2966,  1.8311, 12.9089, -7.1564
1490284081.9939479828,1490284081.9963529110, -1.1248,  0.2148, -0.2966,  1.8311, 12.9089, -7.1564
1490284081.9965369701,1490284081.9989459515, -1.1326,  0.2151, -0.2661,  1.8311, 12.9089, -5.7068
1490284081.9990200996,1490284082.0014269352, -1.1326,  0.2151, -0.2661,  2.4719, 12.6343, -5.7068
1490284082.0015010834,1490284082.0039169788, -1.1326,  0.2151, -0.2661,  2.4719, 12.6343, -5.7068
1490284082.0039899349,1490284082.0063951015, -1.1326,  0.2151, -0.2661,  2.4719, 12.6343, -5.7068
1490284082.0064680576,1490284082.0088739395, -1.1326,  0.2151, -0.2661,  2.4719, 12.6343, -5.7068
1490284082.0089468956,1490284082.0113530159, -1.1326,  0.2151, -0.2661,  3.5858, 12.6495, -5.2185
1490284082.0114259720,1490284082.0138480663, -1.1326,  0.2151, -0.2661,  3.5858, 12.6495, -5.2185
1490284082.0139219761,1490284082.0163269043, -1.1326,  0.2151, -0.2661,  3.5858, 12.6495, -5.2185
1490284082.0164000988,1490284082.0188069344, -1.1362,  0.2109, -0.2703,  3.5858, 12.6495, -5.2185
1490284082.0188810825,1490284082.0212891102, -1.1362,  0.2109, -0.2703,  4.5319, 12.9242, -4.8523
1490284082.0213630199,1490284082.0238239765, -1.1362,  0.2109, -0.2703,  4.5319, 12.9242, -4.8523
1490284082.0238969326,1490284082.0262999535, -1.1362,  0.2109, -0.2703,  4.5319, 12.9242, -4.8523
1490284082.0263729095,1490284082.0287768841, -1.1362,  0.2109, -0.2703,  4.5319, 12.9242, -4.8523
1490284082.0288510323,1490284082.0312559605, -1.1362,  0.2109, -0.2703,  4.5319, 12.6953, -4.4861
1490284082.0313301086,1490284082.0336790085, -1.1362,  0.2109, -0.2703,  5.2032, 12.6953, -4.4861
1490284082.0337541103,1490284082.0360369682, -1.1362,  0.2109, -0.2703,  5.2032, 12.6953, -4.4861
1490284082.0361099243,1490284082.0383999348, -1.1362,  0.2261, -0.2925,  5.2032, 12.6953, -4.4861
1490284082.0384719372,1490284082.0407550335, -1.1431,  0.2261, -0.2925,  5.2032, 12.6953, -4.4861
1490284082.0408279896,1490284082.0432209969, -1.1431,  0.2261, -0.2925,  6.6528, 12.4512, -3.9978
1490284082.0432960987,1490284082.0457029343, -1.1431,  0.2261, -0.2925,  6.6528, 12.4512, -3.9978
1490284082.0457770824,1490284082.0481860638, -1.1431,  0.2261, -0.2925,  6.6528, 12.4512, -3.9978
1490284082.0482590199,1490284082.0506670475, -1.1431,  0.2261, -0.2925,  6.6528, 12.4512, -3.9978
1490284082.0507409573,1490284082.0531480312, -1.1431,  0.2261, -0.2925,  8.6517, 11.7493, -3.5553
1490284082.0532228947,1490284082.0556290150, -1.1431,  0.2261, -0.2925,  8.6517, 11.7493, -3.5553
1490284082.0557041168,1490284082.0581109524, -1.1431,  0.2261, -0.2908,  8.6517, 11.7493, -3.5553
1490284082.0581860542,1490284082.0605900288, -1.1438,  0.2263, -0.2908,  8.6517, 11.7493, -3.5553
1490284082.0606639385,1490284082.0630838871, -1.1438,  0.2263, -0.2908,  8.6517, 11.1084, -2.8687
1490284082.0631580353,1490284082.0655689240, -1.1438,  0.2263, -0.2908,  9.0027, 11.1084, -2.8687
1490284082.0656440258,1490284082.0680470467, -1.1438,  0.2263, -0.2908,  9.0027, 11.1084, -2.8687
1490284082.0681209564,1490284082.0705270767, -1.1438,  0.2263, -0.2908,  9.0027, 11.1084, -2.8687
1490284082.0706028938,1490284082.0730199814, -1.1438,  0.2263, -0.2908,  9.0027, 11.1084, -1.9073
1490284082.0730938911,1490284082.0755000114, -1.1438,  0.2263, -0.2908,  8.1024,  9.9945, -1.9073
1490284082.0755710602,1490284082.0779809952, -1.1438,  0.2263, -0.2559,  8.1024,  9.9945, -1.9073
1490284082.0780520439,1490284082.0804529190, -1.1226,  0.2161, -0.2559,  8.1024,  9.9945, -1.9073
1490284082.0805249214,1490284082.0828969479, -1.1226,  0.2161, -0.2559,  8.1024,  9.9945, -1.9073
1490284082.0829689503,1490284082.0852520466, -1.1226,  0.2161, -0.2559,  7.4615,  9.5062, -1.2054
1490284082.0853230953,1490284082.0876009464, -1.1226,  0.2161, -0.2559,  7.4615,  9.5062, -1.2054
1490284082.0876710415,1490284082.0899538994, -1.1226,  0.2161, -0.2559,  7.4615,  9.5062, -1.2054
1490284082.0900239944,1490284082.0923330784, -1.1226,  0.2161, -0.2559,  7.4615,  9.5062, -1.2054
1490284082.0924038887,1490284082.0948109627, -1.1226,  0.2161, -0.2559,  7.4615,  9.3384, -0.7172
1490284082.0948829651,1490284082.0972940922, -1.1226,  0.2161, -0.2559,  3.9520,  9.3384, -0.7172
1490284082.0973649025,1490284082.0997700691, -1.1389,  0.2449, -0.2305,  3.9520,  9.3384, -0.7172
1490284082.0999479294,1490284082.1023619175, -1.1389,  0.2449, -0.2305,  3.9520,  9.3384, -0.7172
1490284082.1024329662,1490284082.1048440933, -1.1389,  0.2449, -0.2305,  3.9520,  9.3384,  0.2289
1490284082.1049160957,1490284082.1073250771, -1.1389,  0.2449, -0.2305,  1.1902,  8.9111,  0.2289
1490284082.1073958874,1490284082.1098060608, -1.1389,  0.2449, -0.2305,  1.1902,  8.9111,  0.2289
1490284082.1098780632,1490284082.1122961044, -1.1389,  0.2449, -0.2305,  1.1902,  8.9111,  0.2289
1490284082.1123681068,1490284082.1147820950, -1.1389,  0.2449, -0.2305,  1.1902,  8.9111,  0.2289
1490284082.1148540974,1490284082.1172680855, -1.1389,  0.2449, -0.2305,  2.6093,  9.8877,  3.6621
1490284082.1173388958,1490284082.1197528839, -1.0715,  0.3025, -0.2202,  2.6093,  9.8877,  3.6621
1490284082.1198239326,1490284082.1222500801, -1.0715,  0.3025, -0.2202,  2.6093,  9.8877,  3.6621
1490284082.1223208904,1490284082.1247329712, -1.0715,  0.3025, -0.2202,  2.6093,  9.8877,  3.6621
1490284082.1248049736,1490284082.1272161007, -1.0715,  0.3025, -0.2202,  4.3793, 10.2844,  8.2245
1490284082.1272900105,1490284082.1296980381, -1.0715,  0.3025, -0.2202,  4.3793, 10.2844,  8.2245
1490284082.1297729015,1490284082.1322369576, -1.0715,  0.3025, -0.2202,  4.3793, 10.2844,  8.2245
1490284082.1323120594,1490284082.1345949173, -1.0715,  0.3025, -0.2202,  4.3793, 10.2844,  8.2245
1490284082.1346690655,1490284082.1369569302, -1.0715,  0.3025, -0.2202,  8.2855, 10.4218, 14.3127
1490284082.1370339394,1490284082.1393210888, -1.0684,  0.4229, -0.1133,  8.0719, 10.4218, 14.3127
1490284082.1393990517,1490284082.1416850090, -1.0684,  0.4229, -0.1133,  8.0719, 10.4218, 14.3127
1490284082.1417620182,1490284082.1440489292, -1.0684,  0.4229, -0.1133,  8.0719, 10.4218, 14.3127
1490284082.1441268921,1490284082.1464080811, -1.0684,  0.4229, -0.1133,  8.0719, 10.4218, 14.3127
1490284082.1464860439,1490284082.1487710476, -1.0684,  0.4229, -0.1133,  8.0414,  9.6283, 20.2942
1490284082.1488459110,1490284082.1511309147, -1.0684,  0.4229, -0.1133,  8.0414,  9.6283, 20.2942
1490284082.1512060165,1490284082.1536319256, -1.0684,  0.4229, -0.1133,  8.0414,  9.6283, 20.2942
1490284082.1537079811,1490284082.1561150551, -1.0684,  0.4229, -0.1133,  8.0414,  9.6283, 20.2942
1490284082.1561899185,1490284082.1585988998, -1.0684,  0.3184, -0.0786,  4.0131, 10.3302, 25.4974
1490284082.1586759090,1490284082.1610870361, -1.1426,  0.3184, -0.0786,  4.0131, 10.3302, 25.4974
1490284082.1611640453,1490284082.1636209488, -1.1426,  0.3184, -0.0786,  4.0131, 10.3302, 25.4974
1490284082.1636979580,1490284082.1661069393, -1.1426,  0.3184, -0.0786,  4.0131, 10.3302, 25.4974
1490284082.1661839485,1490284082.1685929298, -1.1426,  0.3184, -0.0786,  4.0131, 11.8408, 31.3263
1490284082.1686699390,1490284082.1710760593, -1.1426,  0.3184, -0.0786,  2.3499, 11.8408, 31.3263
1490284082.1711530685,1490284082.1735649109, -1.1426,  0.3184, -0.0786,  2.3499, 11.8408, 31.3263
1490284082.1736419201,1490284082.1760520935, -1.1426,  0.3184, -0.0786,  2.3499, 11.8408, 31.3263
1490284082.1761291027,1490284082.1785349846, -1.1426,  0.4175, -0.0515,  2.3499, 11.8408, 37.9944
1490284082.1786119938,1490284082.1810181141, -1.2080,  0.4175, -0.0515,  4.5776, 11.7035, 37.9944
1490284082.1810948849,1490284082.1835179329, -1.2080,  0.4175, -0.0515,  4.5776, 11.7035, 37.9944
1490284082.1835949421,1490284082.1860020161, -1.2080,  0.4175, -0.0515,  4.5776, 11.7035, 37.9944
1490284082.1860790253,1490284082.1884870529, -1.2080,  0.4175, -0.0515,  4.5776, 11.7035, 37.9944
1490284082.1885631084,1490284082.1909658909, -1.2080,  0.4175, -0.0515,  3.0518,  9.8877, 44.7540
1490284082.1910409927,1490284082.1933910847, -1.2080,  0.4175, -0.0515,  3.0518,  9.8877, 44.7540
1490284082.1934659481,1490284082.1957550049, -1.2080,  0.4175, -0.0515,  3.0518,  9.8877, 44.7540
1490284082.1958310604,1490284082.1981151104, -1.2080,  0.4175, -0.1716,  3.0518,  9.8877, 44.7540
1490284082.1981899738,1490284082.2004759312, -1.2974,  0.4949, -0.1716,  3.2806,  8.8654, 49.8352
1490284082.2006580830,1490284082.2030460835, -1.2974,  0.4949, -0.1716,  3.2806,  8.8654, 49.8352
1490284082.2031209469,1490284082.2055289745, -1.2974,  0.4949, -0.1716,  3.2806,  8.8654, 49.8352
1490284082.2056028843,1490284082.2080109119, -1.2974,  0.4949, -0.1716,  3.2806,  8.8654, 49.8352
1490284082.2080850601,1490284082.2104899883, -1.2974,  0.4949, -0.1716,  3.2806,  8.8654, 58.9142
1490284082.2105650902,1490284082.2130138874, -1.2974,  0.4949, -0.1716, -1.2360, 12.1613, 58.9142
1490284082.2130908966,1490284082.2155020237, -1.2974,  0.4949, -0.1716, -1.2360, 12.1613, 58.9142
1490284082.2155780792,1490284082.2179889679, -1.2974,  0.4949, -0.3516, -1.2360, 12.1613, 58.9142
1490284082.2180659771,1490284082.2204749584, -1.3789,  0.6819, -0.3516, -1.2360, 12.1613, 58.9142
1490284082.2205510139,1490284082.2229669094, -1.3789,  0.6819, -0.3516, -9.7046, 17.1967, 68.6646
1490284082.2230460644,1490284082.2254478931, -1.3789,  0.6819, -0.3516, -9.7046, 17.1967, 68.6646
1490284082.2255260944,1490284082.2279319763, -1.3789,  0.6819, -0.3516, -9.7046, 17.1967, 68.6646
1490284082.2280099392,1490284082.2304129601, -1.3789,  0.6819, -0.3516, -9.7046, 17.1967, 68.6646
1490284082.2304909229,1490284082.2329080105, -1.3789,  0.6819, -0.3516,-19.6686, 18.6157, 76.4923
1490284082.2329869270,1490284082.2353949547, -1.3789,  0.6819, -0.3516,-19.6686, 18.6157, 76.4923
1490284082.2354741096,1490284082.2378830910, -1.3789,  0.6819, -0.3516,-19.6686, 18.6157, 76.4923
1490284082.2379629612,1490284082.2403709888, -1.4438,  0.6465, -0.3237,-19.6686, 18.6157, 76.4923
1490284082.2404489517,1490284082.2428619862, -1.4438,  0.6465, -0.3237,-36.3007, 20.9961, 82.8705
1490284082.2429420948,1490284082.2452280521, -1.4438,  0.6465, -0.3237,-36.3007, 20.9961, 82.8705
1490284082.2453069687,1490284082.2475900650, -1.4438,  0.6465, -0.3237,-36.3007, 20.9961, 82.8705
1490284082.2476689816,1490284082.2499530315, -1.4438,  0.6465, -0.3237,-36.3007, 20.9961, 82.8705
1490284082.2500319481,1490284082.2523210049, -1.4438,  0.6465, -0.3237,-36.3007, 20.9961, 86.7767
1490284082.2524011135,1490284082.2546870708, -1.4438,  0.6465, -0.3237,-53.6957, 23.8190, 88.2568
1490284082.2547659874,1490284082.2570490837, -1.4438,  0.6465, -0.3237,-53.6957, 23.8190, 88.2568
1490284082.2571270466,1490284082.2594060898, -1.3757,  0.4500, -0.2117,-53.6957, 23.8190, 88.2568
1490284082.2594850063,1490284082.2617681026, -1.3757,  0.4500, -0.2117,-53.6957, 23.8190, 88.2568
1490284082.2618470192,1490284082.2642729282, -1.3757,  0.4500, -0.2117,-67.5659, 23.0713, 91.2933
1490284082.2643530369,1490284082.2667601109, -1.3757,  0.4500, -0.2117,-67.5659, 23.0713, 91.2933
1490284082.2668390274,1490284082.2692420483, -1.3757,  0.4500, -0.2117,-67.5659, 23.0713, 91.2933
1490284082.2693219185,1490284082.2717280388, -1.3757,  0.4500, -0.2117,-67.5659, 23.0713, 91.2933
1490284082.2718079090,1490284082.2742259502, -1.3757,  0.4500, -0.2117,-67.5659, 22.2778, 92.3767
1490284082.2743060589,1490284082.2767150402, -1.3757,  0.4500, -0.2117,-79.4525, 22.2778, 92.3767
1490284082.2767939568,1490284082.2792019844, -1.3357,  0.3813, -0.1733,-79.4525, 22.2778, 92.3767
1490284082.2792809010,1490284082.2816889286, -1.3357,  0.3813, -0.1733,-79.4525, 22.2778, 92.3767
1490284082.2817690372,1490284082.2842319012, -1.3357,  0.3813, -0.1733,-79.4525, 22.2778, 93.5059
1490284082.2843120098,1490284082.2867169380, -1.3357,  0.3813, -0.1733,-86.3495, 21.6064, 93.5059
1490284082.2867960930,1490284082.2892069817, -1.3357,  0.3813, -0.1733,-86.3495, 21.6064, 93.5059
1490284082.2892858982,1490284082.2916920185, -1.3357,  0.3813, -0.1733,-86.3495, 21.6064, 93.5059
1490284082.2917709351,1490284082.2941100597, -1.3357,  0.3813, -0.1733,-86.3495, 21.6064, 93.5059
1490284082.2941889763,1490284082.2964699268, -1.3357,  0.3813, -0.1733,-87.4634, 19.3787, 93.1549
1490284082.2965490818,1490284082.2988350391, -1.2732,  0.3784, -0.1577,-87.4634, 19.3787, 93.1549
1490284082.2989130020,1490284082.3011980057, -1.3044,  0.3784, -0.1577,-87.4634, 19.3787, 93.1549
1490284082.3012769222,1490284082.3036730289, -1.3044,  0.3784, -0.1577,-87.4634, 19.3787, 93.1549
1490284082.3038620949,1490284082.3062770367, -1.3044,  0.3784, -0.1577,-83.0383, 17.1356, 91.9189
1490284082.3063559532,1490284082.3087580204, -1.3044,  0.3784, -0.1577,-83.0383, 17.1356, 91.9189
1490284082.3088378906,1490284082.3112471104, -1.3044,  0.3784, -0.1577,-83.0383, 17.1356, 91.9189
1490284082.3113250732,1490284082.3137400150, -1.3044,  0.3784, -0.1577,-83.0383, 17.1356, 91.9189
1490284082.3138179779,1490284082.3162291050, -1.3044,  0.3784, -0.1577,-83.0383, 13.2294, 90.1794
1490284082.3163080215,1490284082.3187160492, -1.3044,  0.2729, -0.1724,-74.3408, 14.5111, 90.1794
1490284082.3187949657,1490284082.3211998940, -1.2656,  0.2729, -0.1724,-74.3408, 14.5111, 90.1794
1490284082.3212790489,1490284082.3236999512, -1.2656,  0.2729, -0.1724,-74.3408, 14.5111, 90.1794
1490284082.3237779140,1490284082.3261818886, -1.2656,  0.2729, -0.1724,-74.3408, 14.5111, 90.1794
1490284082.3262600899,1490284082.3286650181, -1.2656,  0.2729, -0.1724,-64.3768, 11.2915, 88.1042
1490284082.3287448883,1490284082.3311440945, -1.2656,  0.2729, -0.1724,-64.3768, 11.2915, 88.1042
1490284082.3312230110,1490284082.3336379528, -1.2656,  0.2729, -0.1724,-64.3768, 11.2915, 88.1042
1490284082.3337171078,1490284082.3361210823, -1.2656,  0.2729, -0.1724,-64.3768, 11.2915, 88.1042
1490284082.3361999989,1490284082.3386070728, -1.2656,  0.1389, -0.2275,-54.0314,  9.3536, 85.6781
1490284082.3386850357,1490284082.3410909176, -1.1887,  0.1389, -0.2275,-54.0314,  9.3536, 85.6781
1490284082.3411679268,1490284082.3435380459, -1.1887,  0.1389, -0.2275,-54.0314,  9.3536, 85.6781
1490284082.3436160088,1490284082.3459050655, -1.1887,  0.1389, -0.2275,-54.0314,  9.3536, 85.6781
1490284082.3459820747,1490284082.3482680321, -1.1887,  0.1389, -0.2275,-46.2189,  7.0343, 82.0007
1490284082.3483450413,1490284082.3506319523, -1.1887,  0.1389, -0.2275,-44.8914,  7.0343, 82.0007
1490284082.3507080078,1490284082.3530859947, -1.1887,  0.1389, -0.2275,-44.8914,  7.0343, 82.0007
1490284082.3531630039,1490284082.3555700779, -1.1887,  0.1389, -0.2275,-44.8914,  7.0343, 82.0007
1490284082.3556470871,1490284082.3580598831, -1.1887,  0.1389, -0.3525,-44.8914,  7.0343, 78.0945
1490284082.3581380844,1490284082.3605420589, -1.1533, -0.0149, -0.3364,-37.9028,  4.7607, 77.9266
1490284082.3606181145,1490284082.3630390167, -1.1533, -0.0149, -0.3364,-37.9028,  4.7607, 77.9266
1490284082.3631160259,1490284082.3655240536, -1.1533, -0.0149, -0.3364,-37.9028,  4.7607, 77.9266
1490284082.3656010628,1490284082.3680129051, -1.1533, -0.0149, -0.3364,-37.9028,  4.7607, 77.9266
1490284082.3680899143,1490284082.3704969883, -1.1533, -0.0149, -0.3364,-32.5317,  3.3875, 70.7397
1490284082.3705739975,1490284082.3730878830, -1.1533, -0.0149, -0.3364,-32.5317,  3.3875, 70.7397
1490284082.3731648922,1490284082.3755729198, -1.1533, -0.0149, -0.3364,-32.5317,  3.3875, 70.7397
1490284082.3756508827,1490284082.3780579567, -1.1533, -0.0149, -0.3364,-32.5317,  3.3875, 70.7397
1490284082.3781349659,1490284082.3805429935, -1.0564, -0.1565, -0.3645,-30.1514,  3.5095, 61.2946
1490284082.3806200027,1490284082.3830349445, -1.0564, -0.1565, -0.3645,-30.1514,  3.5095, 61.2946
1490284082.3831119537,1490284082.3855180740, -1.0564, -0.1565, -0.3645,-30.1514,  3.5095, 61.2946
1490284082.3855950832,1490284082.3880040646, -1.0564, -0.1565, -0.3645,-30.1514,  3.5095, 61.2946
1490284082.3880810738,1490284082.3904809952, -1.0564, -0.1565, -0.3645,-30.1514,  3.3569, 51.2543
1490284082.3905580044,1490284082.3929409981, -1.0564, -0.1565, -0.3645,-30.4718,  3.3569, 51.2543
1490284082.3930180073,1490284082.3952980042, -1.0564, -0.1565, -0.3645,-30.4718,  3.3569, 51.2543
1490284082.3953731060,1490284082.3976581097, -1.0564, -0.1565, -0.3645,-30.4718,  3.3569, 51.2543
1490284082.3977339268,1490284082.4000179768, -0.9575, -0.3218, -0.4070,-30.4718,  3.3569, 51.2543
1490284082.4000940323,1490284082.4024419785, -0.9575, -0.3218, -0.4070,-32.8827,  2.4261, 39.6881
1490284082.4025189877,1490284082.4049251080, -0.9575, -0.3218, -0.4070,-32.8827,  2.4261, 39.6881
1490284082.4050030708,1490284082.4074099064, -0.9575, -0.3218, -0.4070,-32.8827,  2.4261, 39.6881
1490284082.4076020718,1490284082.4100120068, -0.9575, -0.3218, -0.4070,-32.8827,  2.4261, 39.6881
1490284082.4100890160,1490284082.4125130177, -0.9575, -0.3218, -0.4070,-36.4838,  1.6785, 26.6113
1490284082.4125919342,1490284082.4149971008, -0.9575, -0.3218, -0.4070,-36.4838,  1.6785, 26.6113
1490284082.4150750637,1490284082.4174880981, -0.9575, -0.3218, -0.4070,-36.4838,  1.6785, 26.6113
1490284082.4175651073,1490284082.4199790955, -0.8545, -0.3816, -0.4104,-36.4838,  1.6785, 26.6113
1490284082.4200570583,1490284082.4224760532, -0.8545, -0.3816, -0.4104,-38.9557,  0.0610, 12.8632
1490284082.4225549698,1490284082.4249660969, -0.8545, -0.3816, -0.4104,-38.9557,  0.0610, 12.8632
1490284082.4250450134,1490284082.4274539948, -0.8545, -0.3816, -0.4104,-38.9557,  0.0610, 12.8632
1490284082.4275329113,1490284082.4299380779, -0.8545, -0.3816, -0.4104,-38.9557,  0.0610, 12.8632
1490284082.4300160408,1490284082.4324390888, -0.8545, -0.3816, -0.4104,-38.9557,  0.0610, -1.4496
1490284082.4325139523,1490284082.4349179268, -0.8545, -0.3816, -0.4104,-40.8173, -2.5330, -1.4496
1490284082.4349920750,1490284082.4373939037, -0.8545, -0.3816, -0.4104,-40.8173, -2.5330, -1.4496
1490284082.4374680519,1490284082.4398710728, -0.8123, -0.4282, -0.3601,-40.8173, -2.5330, -1.4496
1490284082.4399459362,1490284082.4423360825, -0.8123, -0.4282, -0.3601,-40.8173, -2.5330, -1.4496
1490284082.4424099922,1490284082.4447000027, -0.8123, -0.4282, -0.3601,-42.2058, -5.5695,-17.0441
1490284082.4447760582,1490284082.4470589161, -0.8123, -0.4282, -0.3601,-42.2058, -5.5695,-17.0441
1490284082.4471349716,1490284082.4494209290, -0.8123, -0.4282, -0.3601,-42.2058, -5.5695,-17.0441
1490284082.4494979382,1490284082.4517800808, -0.8123, -0.4282, -0.3601,-42.2058, -5.5695,-17.0441
1490284082.4518558979,1490284082.4542779922, -0.8123, -0.4282, -0.3601,-43.6249, -9.1553,-31.6315
1490284082.4543550014,1490284082.4567649364, -0.8123, -0.4282, -0.3601,-43.6249, -9.1553,-31.6315
1490284082.4568419456,1490284082.4592459202, -0.8220, -0.4148, -0.3384,-43.6249, -9.1553,-31.6315
1490284082.4593219757,1490284082.4617319107, -0.8220, -0.4148, -0.3384,-43.6249, -9.1553,-31.6315
1490284082.4618089199,1490284082.4642300606, -0.8220, -0.4148, -0.3384,-43.6249,-13.0615,-46.4020
1490284082.4643089771,1490284082.4667160511, -0.8220, -0.4148, -0.3384,-43.8690,-13.0615,-46.4020
1490284082.4667949677,1490284082.4692010880, -0.8220, -0.4148, -0.3384,-43.8690,-13.0615,-46.4020
1490284082.4692800045,1490284082.4716920853, -0.8220, -0.4148, -0.3384,-43.8690,-13.0615,-46.4020
1490284082.4717700481,1490284082.4742259979, -0.8220, -0.4148, -0.3384,-43.8690,-13.0615,-46.4020
1490284082.4743039608,1490284082.4767160416, -0.8220, -0.4148, -0.3384,-43.5333,-17.5629,-61.7065
1490284082.4767930508,1490284082.4791998863, -0.8845, -0.3223, -0.3096,-43.5333,-17.5629,-61.7065
1490284082.4792790413,1490284082.4816820621, -0.8882, -0.3223, -0.3096,-43.5333,-17.5629,-61.7065
1490284082.4817590714,1490284082.4842131138, -0.8882, -0.3223, -0.3096,-43.5333,-17.5629,-61.7065
1490284082.4842910767,1490284082.4866991043, -0.8882, -0.3223, -0.3096,-41.4734,-22.4457,-76.5991
1490284082.4867770672,1490284082.4891870022, -0.8882, -0.3223, -0.3096,-41.4734,-22.4457,-76.5991
1490284082.4892659187,1490284082.4916729927, -0.8882, -0.3223, -0.3096,-41.4734,-22.4457,-76.5991
1490284082.4917509556,1490284082.4940490723, -0.8882, -0.3223, -0.3096,-41.4734,-22.4457,-76.5991
1490284082.4941270351,1490284082.4964179993, -0.8882, -0.3223, -0.3096,-37.7808,-25.5890,-91.8579
1490284082.4964950085,1490284082.4987781048, -0.8882, -0.2871, -0.2778,-37.7808,-25.5890,-91.8579
1490284082.4988570213,1490284082.5011370182, -0.9739, -0.2871, -0.2778,-37.7808,-25.5890,-91.8579
1490284082.5012149811,1490284082.5036358833, -0.9739, -0.2871, -0.2778,-37.7808,-25.5890,-91.8579
1490284082.5037159920,1490284082.5061180592, -0.9739, -0.2871, -0.2778,-37.7808,-25.5890,-107.4829
1490284082.5061969757,1490284082.5086050034, -0.9739, -0.2871, -0.2778,-34.8358,-27.8015,-105.8350
1490284082.5086829662,1490284082.5110909939, -0.9739, -0.2871, -0.2778,-34.8358,-27.8015,-105.8350
1490284082.5112800598,1490284082.5137031078, -0.9739, -0.2871, -0.2778,-34.8358,-27.8015,-105.8350
1490284082.5137810707,1490284082.5161910057, -0.9739, -0.2871, -0.2778,-34.8358,-27.8015,-105.8350
1490284082.5162699223,1490284082.5186810493, -0.9739, -0.2246, -0.3044,-33.5236,-29.8462,-118.9575
1490284082.5187590122,1490284082.5211660862, -1.0774, -0.2214, -0.3044,-33.5236,-29.8462,-118.9575
1490284082.5212430954,1490284082.5236680508, -1.0774, -0.2214, -0.3044,-33.5236,-29.8462,-118.9575
1490284082.5237460136,1490284082.5261549950, -1.0774, -0.2214, -0.3044,-33.5236,-29.8462,-118.9575
1490284082.5262329578,1490284082.5286378860, -1.0774, -0.2214, -0.3044,-32.4249,-30.5023,-130.9662
1490284082.5287148952,1490284082.5311260223, -1.0774, -0.2214, -0.3044,-32.4249,-30.5023,-130.9662
1490284082.5312039852,1490284082.5335400105, -1.0774, -0.2214, -0.3044,-32.4249,-30.5023,-130.9662
1490284082.5336179733,1490284082.5359070301, -1.0774, -0.2214, -0.3044,-32.4249,-30.5023,-130.9662
1490284082.5359840393,1490284082.5382680893, -1.0774, -0.2214, -0.3044,-32.4249,-34.4086,-141.7236
1490284082.5383460522,1490284082.5406260490, -1.1555, -0.1116, -0.3118,-30.0293,-31.3721,-141.7236
1490284082.5407040119,1490284082.5430769920, -1.1555, -0.1116, -0.3118,-30.0293,-31.3721,-141.7236
1490284082.5431559086,1490284082.5455639362, -1.1555, -0.1116, -0.3118,-30.0293,-31.3721,-141.7236
1490284082.5456430912,1490284082.5480480194, -1.1555, -0.1116, -0.3118,-30.0293,-31.3721,-141.7236
1490284082.5481278896,1490284082.5505321026, -1.1555, -0.1116, -0.3118,-26.1230,-31.5704,-152.0233
1490284082.5506100655,1490284082.5530281067, -1.1555, -0.1116, -0.3118,-26.1230,-31.5704,-152.0233
1490284082.5531070232,1490284082.5555119514, -1.1555, -0.1116, -0.3118,-26.1230,-31.5704,-152.0233
1490284082.5555899143,1490284082.5579960346, -1.1555, -0.1116, -0.3118,-26.1230,-31.5704,-152.0233
1490284082.5580739975,1490284082.5604801178, -1.2588, -0.0437, -0.3018,-22.3236,-31.9824,-160.6445
1490284082.5605590343,1490284082.5630259514, -1.2588, -0.0437, -0.3018,-22.3236,-31.9824,-160.6445
1490284082.5631039143,1490284082.5655150414, -1.2588, -0.0437, -0.3018,-22.3236,-31.9824,-160.6445
1490284082.5655939579,1490284082.5680038929, -1.2588, -0.0437, -0.3018,-22.3236,-31.9824,-160.6445
1490284082.5680830479,1490284082.5704910755, -1.2588, -0.0437, -0.3018,-18.7225,-31.9214,-168.0450
1490284082.5705680847,1490284082.5730240345, -1.2588, -0.0437, -0.3018,-18.7225,-31.9214,-168.0450
1490284082.5731029510,1490284082.5755140781, -1.2588, -0.0437, -0.3018,-18.7225,-31.9214,-168.0450
1490284082.5755929947,1490284082.5780038834, -1.2588, -0.0437, -0.3018,-18.7225,-31.9214,-168.0450
1490284082.5780820847,1490284082.5804889202, -1.3838,  0.0247, -0.3066,-18.7225,-31.9214,-173.2635
1490284082.5805680752,1490284082.5829739571, -1.3838,  0.0247, -0.3066,-15.8844,-31.6925,-173.2635
1490284082.5830540657,1490284082.5853390694, -1.3838,  0.0247, -0.3066,-15.8844,-31.6925,-173.2635
1490284082.5854179859,1490284082.5877029896, -1.3838,  0.0247, -0.3066,-15.8844,-31.6925,-173.2635
1490284082.5877819061,1490284082.5900650024, -1.3838,  0.0247, -0.3066,-15.8844,-31.6925,-173.2635
1490284082.5901439190,1490284082.5924739838, -1.3838,  0.0247, -0.3066,-12.4512,-31.0516,-177.7039
1490284082.5925529003,1490284082.5949618816, -1.3838,  0.0247, -0.3066,-12.4512,-31.0516,-177.7039
1490284082.5950419903,1490284082.5974500179, -1.3838,  0.0247, -0.3066,-12.4512,-31.0516,-177.7039
1490284082.5975298882,1490284082.5999360085, -1.4980,  0.1106, -0.2495,-12.4512,-31.0516,-177.7039
1490284082.6000149250,1490284082.6024329662, -1.4980,  0.1106, -0.2495, -9.1705,-31.2805,-180.6335
1490284082.6025099754,1490284082.6049149036, -1.4980,  0.1106, -0.2495, -9.1705,-31.2805,-180.6335
1490284082.6049909592,1490284082.6073989868, -1.4980,  0.1106, -0.2495, -9.1705,-31.2805,-180.6335
1490284082.6074769497,1490284082.6098859310, -1.4980,  0.1106, -0.2495, -9.1705,-31.2805,-180.6335
1490284082.6099638939,1490284082.6124188900, -1.4980,  0.1106, -0.2495, -9.1705,-31.7078,-182.8918
1490284082.6126070023,1490284082.6150128841, -1.4980,  0.1106, -0.2495, -5.9357,-31.7078,-182.8918
1490284082.6150920391,1490284082.6174960136, -1.4980,  0.1106, -0.2495, -5.9357,-31.7078,-182.8918
1490284082.6175730228,1490284082.6199810505, -1.5486,  0.1887, -0.2512, -5.9357,-31.7078,-182.8918
1490284082.6200571060,1490284082.6224689484, -1.5486,  0.1887, -0.2512, -5.9357,-31.7078,-183.0292
1490284082.6225459576,1490284082.6249520779, -1.5486,  0.1887, -0.2512, -3.0212,-32.2571,-183.0292
1490284082.6250290871,1490284082.6274330616, -1.5486,  0.1887, -0.2512, -3.0212,-32.2571,-183.0292
1490284082.6275091171,1490284082.6299149990, -1.5486,  0.1887, -0.2512, -3.0212,-32.2571,-183.0292
1490284082.6299920082,1490284082.6324360371, -1.5486,  0.1887, -0.2512, -3.0212,-32.2571,-183.0292
1490284082.6325130463,1490284082.6347990036, -1.5486,  0.1887, -0.2512, -1.0834,-32.1808,-182.4493
1490284082.6348750591,1490284082.6371579170, -1.5486,  0.1887, -0.2512, -1.0834,-32.1808,-182.4493
1490284082.6372330189,1490284082.6395149231, -1.5693,  0.2690, -0.2104, -1.0834,-32.1808,-182.4493
1490284082.6395909786,1490284082.6418759823, -1.5693,  0.2690, -0.2104, -1.0834,-32.1808,-182.4493
1490284082.6419520378,1490284082.6442370415, -1.5693,  0.2690, -0.2104, -1.0834,-33.0505,-180.9235
1490284082.6443140507,1490284082.6465950012, -1.5693,  0.2690, -0.2104, -1.2360,-33.0505,-180.9235
1490284082.6466710567,1490284082.6489539146, -1.5693,  0.2690, -0.2104, -1.2360,-33.0505,-180.9235
1490284082.6490290165,1490284082.6513121128, -1.5693,  0.2690, -0.2104, -1.2360,-33.0505,-180.9235
1490284082.6513879299,1490284082.6537759304, -1.5693,  0.2690, -0.2104, -1.2360,-33.0505,-180.9235
1490284082.6538519859,1490284082.6562609673, -1.5693,  0.2690, -0.2104, -0.4883,-32.7301,-178.0090
1490284082.6563379765,1490284082.6587491035, -1.5693,  0.2690, -0.1643, -0.4883,-32.7301,-178.0090
1490284082.6588261127,1490284082.6612360477, -1.5583,  0.4309, -0.1643, -0.4883,-32.7301,-178.0090
1490284082.6613109112,1490284082.6637330055, -1.5583,  0.4309, -0.1643, -0.4883,-32.7301,-178.0090
1490284082.6638100147,1490284082.6662180424, -1.5583,  0.4309, -0.1643,  1.0223,-30.5481,-175.6287
1490284082.6662940979,1490284082.6687018871, -1.5583,  0.4309, -0.1643,  1.0223,-30.5481,-175.6287
1490284082.6687788963,1490284082.6711890697, -1.5583,  0.4309, -0.1643,  1.0223,-30.5481,-175.6287
1490284082.6712648869,1490284082.6736860275, -1.5583,  0.4309, -0.1643,  1.0223,-30.5481,-175.6287
1490284082.6737620831,1490284082.6761689186, -1.5583,  0.4309, -0.1643,  1.4801,-29.0680,-173.3856
1490284082.6762449741,1490284082.6786580086, -1.5583,  0.4309, -0.1555,  1.4801,-29.0680,-173.3856
1490284082.6787340641,1490284082.6811389923, -1.4556,  0.3792, -0.1555,  1.4801,-29.0680,-173.3856
1490284082.6812150478,1490284082.6836359501, -1.4556,  0.3792, -0.1555,  1.4801,-29.0680,-173.3856
1490284082.6837139130,1490284082.6861190796, -1.4556,  0.3792, -0.1555,  1.4801,-29.0680,-169.4641
1490284082.6861960888,1490284082.6885991096, -1.4556,  0.3792, -0.1555,  2.9755,-28.2440,-169.4641
1490284082.6886749268,1490284082.6910829544, -1.4556,  0.3792, -0.1555,  2.9755,-28.2440,-169.4641
1490284082.6911590099,1490284082.6934928894, -1.4556,  0.3792, -0.1555,  2.9755,-28.2440,-169.4641
1490284082.6935698986,1490284082.6958539486, -1.4556,  0.3792, -0.1555,  2.9755,-28.2440,-169.4641
1490284082.6959300041,1490284082.6982140541, -1.4556,  0.3792, -0.1555,  4.2419,-28.6407,-164.4897
1490284082.6982901096,1490284082.7005760670, -1.3901,  0.3188, -0.1648,  4.2419,-28.6407,-164.4897
1490284082.7006518841,1490284082.7030379772, -1.3901,  0.3188, -0.1648,  4.2419,-28.6407,-164.4897
1490284082.7031140327,1490284082.7055230141, -1.3901,  0.3188, -0.1648,  4.2419,-28.6407,-164.4897
1490284082.7055990696,1490284082.7080030441, -1.3901,  0.3188, -0.1648,  5.8899,-29.3121,-159.7290
1490284082.7080800533,1490284082.7104790211, -1.3901,  0.3188, -0.1648,  5.8899,-29.3121,-159.7290
1490284082.7105560303,1490284082.7129659653, -1.3901,  0.3188, -0.1648,  5.8899,-29.3121,-159.7290
1490284082.7131431103,1490284082.7155559063, -1.3901,  0.3188, -0.1648,  5.8899,-29.3121,-159.7290
1490284082.7156329155,1490284082.7180459499, -1.3901,  0.3188, -0.1648,  5.8899,-30.4871,-154.7699
1490284082.7181220055,1490284082.7205309868, -1.3413,  0.3445, -0.1477,  6.3477,-30.4871,-154.7699
1490284082.7206070423,1490284082.7230229378, -1.3413,  0.3445, -0.1477,  6.3477,-30.4871,-154.7699
1490284082.7230999470,1490284082.7255060673, -1.3413,  0.3445, -0.1477,  6.3477,-30.4871,-154.7699
1490284082.7255840302,1490284082.7279930115, -1.3413,  0.3445, -0.1477,  6.3477,-30.4871,-150.8636
1490284082.7280700207,1490284082.7304770947, -1.3413,  0.3445, -0.1477,  7.7362,-31.4636,-149.1394
1490284082.7305529118,1490284082.7329668999, -1.3413,  0.3445, -0.1477,  7.7362,-31.4636,-149.1394
1490284082.7330420017,1490284082.7354500294, -1.3413,  0.3445, -0.1477,  7.7362,-31.4636,-149.1394
1490284082.7355260849,1490284082.7379310131, -1.3413,  0.3445, -0.1477,  7.7362,-31.4636,-149.1394
1490284082.7380061150,1490284082.7404139042, -1.2642,  0.3665, -0.1545,  6.8054,-32.0892,-142.3187
1490284082.7404899597,1490284082.7428750992, -1.2642,  0.3665, -0.1545,  6.8054,-32.0892,-142.3187
1490284082.7429509163,1490284082.7452409267, -1.2642,  0.3665, -0.1545,  6.8054,-32.0892,-142.3187
1490284082.7453169823,1490284082.7476000786, -1.2642,  0.3665, -0.1545,  6.8054,-32.0892,-142.3187
1490284082.7476770878,1490284082.7499670982, -1.2642,  0.3665, -0.1545,  6.8054,-31.1279,-134.7504
1490284082.7500429153,1490284082.7523329258, -1.2642,  0.3665, -0.1545,  4.3335,-31.1279,-134.7504
1490284082.7524089813,1490284082.7546908855, -1.2642,  0.3665, -0.1545,  4.3335,-31.1279,-134.7504
1490284082.7547669411,1490284082.7570478916, -1.2642,  0.3665, -0.1545,  4.3335,-31.1279,-134.7504
1490284082.7571239471,1490284082.7594060898, -1.1392,  0.4231, -0.1963,  4.3335,-31.1279,-134.7504
1490284082.7594809532,1490284082.7617599964, -1.1780,  0.4231, -0.1963, -0.6561,-29.6936,-127.5635
1490284082.7618360519,1490284082.7642629147, -1.1780,  0.4231, -0.1963, -0.6561,-29.6936,-127.5635
1490284082.7643389702,1490284082.7667460442, -1.1780,  0.4231, -0.1963, -0.6561,-29.6936,-127.5635
1490284082.7668220997,1490284082.7692248821, -1.1780,  0.4231, -0.1963, -0.6561,-29.6936,-127.5635
1490284082.7693018913,1490284082.7717061043, -1.1780,  0.4231, -0.1963, -5.2643,-27.8320,-119.5068
1490284082.7717831135,1490284082.7742559910, -1.1780,  0.4231, -0.1963, -5.2643,-27.8320,-119.5068
1490284082.7743320465,1490284082.7767388821, -1.1780,  0.4231, -0.1963, -5.2643,-27.8320,-119.5068
1490284082.7768149376,1490284082.7792201042, -1.1780,  0.4880, -0.1980, -5.2643,-27.8320,-119.5068
1490284082.7792971134,1490284082.7816989422, -1.0681,  0.4880, -0.1980, -9.1705,-24.4293,-111.0535
1490284082.7817759514,1490284082.7842230797, -1.0681,  0.4880, -0.1980, -8.9417,-24.4293,-111.0535
1490284082.7843000889,1490284082.7867069244, -1.0681,  0.4880, -0.1980, -8.9417,-24.4293,-111.0535
1490284082.7867829800,1490284082.7891941071, -1.0681,  0.4880, -0.1980, -8.9417,-24.4293,-111.0535
1490284082.7892699242,1490284082.7916769981, -1.0681,  0.4880, -0.1980, -8.9417,-24.4293,-102.6459
1490284082.7917530537,1490284082.7940509319, -1.0681,  0.4880, -0.1980,-11.0321,-21.9574,-102.6459
1490284082.7941300869,1490284082.7964138985, -1.0681,  0.4880, -0.1980,-11.0321,-21.9574,-102.6459
1490284082.7964930534,1490284082.7987799644, -1.0681,  0.4880, -0.1790,-11.0321,-21.9574,-102.6459
1490284082.7988579273,1490284082.8011429310, -1.0371,  0.5117, -0.1790,-11.0321,-21.9574,-102.6459
1490284082.8012220860,1490284082.8036379814, -1.0371,  0.5117, -0.1790,-12.8632,-18.7836,-93.1091
1490284082.8037168980,1490284082.8061261177, -1.0371,  0.5117, -0.1790,-12.8632,-18.7836,-93.1091
1490284082.8062050343,1490284082.8086109161, -1.0371,  0.5117, -0.1790,-12.8632,-18.7836,-93.1091
1490284082.8086900711,1490284082.8110990524, -1.0371,  0.5117, -0.1790,-12.8632,-18.7836,-93.1091
1490284082.8111760616,1490284082.8136250973, -1.0371,  0.5117, -0.1790,-12.3596,-16.4948,-81.9702
1490284082.8137040138,1490284082.8161098957, -1.0371,  0.5117, -0.1790,-12.3596,-16.4948,-81.9702
1490284082.8162980080,1490284082.8187088966, -1.0371,  0.5117, -0.1165,-12.3596,-16.4948,-81.9702
1490284082.8187880516,1490284082.8211948872, -0.9656,  0.5928, -0.0859,-12.3596,-16.4948,-81.9702
1490284082.8212749958,1490284082.8236908913, -0.9656,  0.5928, -0.0859,-12.3596,-16.4948,-69.1528
1490284082.8237709999,1490284082.8261780739, -0.9656,  0.5928, -0.0859, -9.1095,-16.2201,-69.1528
1490284082.8262560368,1490284082.8286600113, -0.9656,  0.5928, -0.0859, -9.1095,-16.2201,-69.1528
1490284082.8287389278,1490284082.8311479092, -0.9656,  0.5928, -0.0859, -9.1095,-16.2201,-69.1528
1490284082.8312261105,1490284082.8336479664, -0.9656,  0.5928, -0.0859, -9.1095,-16.2201,-53.5278
1490284082.8337259293,1490284082.8361330032, -0.9656,  0.5928, -0.0859, -2.5024,-17.3035,-54.4739
1490284082.8362109661,1490284082.8386199474, -0.9656,  0.5928, -0.0234, -2.5024,-17.3035,-54.4739
1490284082.8386979103,1490284082.8411068916, -0.9104,  0.8513, -0.0479, -2.5024,-17.3035,-54.4739
1490284082.8411850929,1490284082.8435509205, -0.9104,  0.8513, -0.0479, -2.5024,-17.3035,-54.4739
1490284082.8436288834,1490284082.8459138870, -0.9104,  0.8513, -0.0479,  6.8512,-18.4021,-37.6587
1490284082.8459908962,1490284082.8482708931, -0.9104,  0.8513, -0.0479,  6.8512,-18.4021,-37.6587
1490284082.8483479023,1490284082.8506340981, -0.9104,  0.8513, -0.0479,  6.8512,-18.4021,-37.6587
1490284082.8507111073,1490284082.8530728817, -0.9104,  0.8513, -0.0479,  6.8512,-18.4021,-37.6587
1490284082.8531510830,1490284082.8555619717, -0.9104,  0.8513, -0.0479, 18.5699,-18.5852,-18.6005
1490284082.8556408882,1490284082.8580501080, -0.9104,  0.8513, -0.0479, 18.1122,-18.5852,-18.6005
1490284082.8581309319,1490284082.8605349064, -0.9045,  1.0959, -0.0654, 18.1122,-18.5852,-18.6005
1490284082.8606150150,1490284082.8630359173, -0.9045,  1.0959, -0.0654, 18.1122,-18.5852,-18.6005
1490284082.8631150723,1490284082.8655259609, -0.9045,  1.0959, -0.0654, 18.1122,-18.5852,  1.7395
1490284082.8656020164,1490284082.8680040836, -0.9045,  1.0959, -0.0654, 25.1923,-15.0452,  1.7395
1490284082.8680799007,1490284082.8704919815, -0.9045,  1.0959, -0.0654, 25.1923,-15.0452,  1.7395
1490284082.8705680370,1490284082.8730299473, -0.9045,  1.0959, -0.0654, 25.1923,-15.0452,  1.7395
1490284082.8731069565,1490284082.8755149841, -0.9045,  1.0959, -0.0654, 25.1923,-15.0452,  1.7395
1490284082.8755929470,1490284082.8780090809, -0.9045,  1.0959, -0.0654, 26.3672, -8.4534, 21.9421
1490284082.8780879974,1490284082.8805029392, -1.7471,  0.6260, -0.2188, 26.3672, -8.4534, 21.9421
1490284082.8805799484,1490284082.8830409050, -1.7471,  0.6260, -0.2188, 26.3672, -8.4534, 21.9421
1490284082.8831191063,1490284082.8855330944, -1.7471,  0.6260, -0.2188, 26.3672, -8.4534, 21.9421
1490284082.8856120110,1490284082.8880279064, -1.7471,  0.6260, -0.2188, 25.2686, 14.9994, 33.2794
1490284082.8881080151,1490284082.8905200958, -1.7471,  0.6260, -0.2188, 25.2686, 14.9994, 33.2794
1490284082.8905999660,1490284082.8929719925, -1.7471,  0.6260, -0.2188, 25.2686, 14.9994, 33.2794
1490284082.8930521011,1490284082.8953349590, -1.7471,  0.6260, -0.2188, 25.2686, 14.9994, 33.2794
1490284082.8954141140,1490284082.8976979256, -1.7471,  0.6260, -0.2188, 25.2686, 20.4773, 44.3573
1490284082.8977770805,1490284082.9000608921, -1.2441, -1.1392,  0.1743,  7.6752, 20.4773, 44.3573
1490284082.9001359940,1490284082.9024519920, -1.2441, -1.1392,  0.1743,  7.6752, 20.4773, 44.3573
1490284082.9025280476,1490284082.9048099518, -1.2441, -1.1392,  0.1743,  7.6752, 20.4773, 44.3573
1490284082.9048850536,1490284082.9071669579, -1.2441, -1.1392,  0.1743,  7.6752, 20.4773, 44.3573
1490284082.9072420597,1490284082.9095289707, -1.2441, -1.1392,  0.1743, 17.9138, 17.6239, 41.9006
1490284082.9096059799,1490284082.9118900299, -1.2441, -1.1392,  0.1743, 17.9138, 17.6239, 41.9006
1490284082.9119670391,1490284082.9144189358, -1.2441, -1.1392,  0.1743, 17.9138, 17.6239, 41.9006
1490284082.9144959450,1490284082.9169120789, -1.2441, -1.1392,  0.1743, 17.9138, 17.6239, 41.9006
1490284082.9169900417,1490284082.9193909168, -1.2441, -1.2737, -0.3186, 50.0946,  9.6893, 38.8184
1490284082.9195749760,1490284082.9220280647, -1.4846, -1.2737, -0.3186, 50.0946,  9.6893, 38.8184
1490284082.9221038818,1490284082.9245131016, -1.4846, -1.2737, -0.3186, 50.0946,  9.6893, 38.8184
1490284082.9245889187,1490284082.9270040989, -1.4846, -1.2737, -0.3186, 50.0946,  9.6893, 38.8184
1490284082.9270799160,1490284082.9294910431, -1.4846, -1.2737, -0.3186, 50.0946,  8.7433, 49.6826
1490284082.9295680523,1490284082.9319729805, -1.4846, -1.2737, -0.3186, 56.5796,  8.7433, 49.6826
1490284082.9320929050,1490284082.9344980717, -1.4846, -1.2737, -0.3186, 56.5796,  8.7433, 49.6826
1490284082.9345738888,1490284082.9369800091, -1.4846, -1.2737, -0.3186, 56.5796,  8.7433, 49.6826
1490284082.9370560646,1490284082.9394609928, -1.4846,  0.5107, -0.2812, 56.5796,  8.7433, 70.2972
1490284082.9395380020,1490284082.9419500828, -1.4219,  0.5107, -0.2812, 26.3214, 13.0768, 70.2972
1490284082.9420800209,1490284082.9444890022, -1.4219,  0.5107, -0.2812, 26.3214, 13.0768, 70.2972
1490284082.9445679188,1490284082.9469769001, -1.4219,  0.5107, -0.2812, 26.3214, 13.0768, 70.2972
1490284082.9470560551,1490284082.9494640827, -1.4219,  0.5107, -0.2812, 26.3214, 13.0768, 70.2972
1490284082.9495429993,1490284082.9519529343, -1.4219,  0.5107, -0.2812, 15.0452,  8.9722, 81.3141
1490284082.9520800114,1490284082.9543659687, -1.4219,  0.5107, -0.2812, 15.0452,  8.9722, 81.3141
1490284082.9544439316,1490284082.9567329884, -1.4219,  0.5107, -0.2812, 15.0452,  8.9722, 81.3141
1490284082.9568109512,1490284082.9590959549, -1.4219,  0.5107, -0.1870, 15.0452,  8.9722, 81.3141
1490284082.9591739178,1490284082.9614551067, -1.6921, -0.2661, -0.1870, 14.0839,  4.3945, 95.6573
1490284082.9615330696,1490284082.9639289379, -1.6921, -0.2661, -0.1870, 14.0839,  4.3945, 95.6573
1490284082.9640049934,1490284082.9664120674, -1.6921, -0.2661, -0.1870, 14.0839,  4.3945, 95.6573
1490284082.9664878845,1490284082.9688959122, -1.6921, -0.2661, -0.1870, 14.0839,  4.3945, 95.6573
1490284082.9689729214,1490284082.9713790417, -1.6921, -0.2661, -0.1870, 14.0839,  4.3945,113.8458
1490284082.9714560509,1490284082.9738709927, -1.6921, -0.2661, -0.1870,  0.7019, -0.3815,113.8458
1490284082.9739460945,1490284082.9763538837, -1.6921, -0.2661, -0.1870,  0.7019, -0.3815,113.8458
1490284082.9764280319,1490284082.9788320065, -1.6921, -0.2661, -0.1245,  0.7019, -0.3815,113.8458
1490284082.9789071083,1490284082.9813139439, -1.2922,  0.4075, -0.1057,  0.7019, -0.3815,113.8458
1490284082.9813899994,1490284082.9838459492, -1.2922,  0.4075, -0.1057,-25.1923, -5.0812,125.0000
1490284082.9839239120,1490284082.9863290787, -1.2922,  0.4075, -0.1057,-25.1923, -5.0812,125.0000
1490284082.9864060879,1490284082.9888119698, -1.2922,  0.4075, -0.1057,-25.1923, -5.0812,125.0000
1490284082.9888899326,1490284082.9913010597, -1.2922,  0.4075, -0.1057,-25.1923, -5.0812,125.0000
1490284082.9913780689,1490284082.9938650131, -1.2922,  0.4075, -0.1057,-40.4510, -5.0507,120.3461
1490284082.9939429760,1490284082.9963519573, -1.2922,  0.4075, -0.1057,-40.4510, -5.0507,120.3461
1490284082.9964280128,1490284082.9988369942, -1.2922,  0.4075,  0.0193,-40.4510, -5.0507,120.3461
1490284082.9989149570,1490284083.0013248920, -1.2063,  0.0928,  0.0425,-40.4510, -5.0507,120.3461
1490284083.0014019012,1490284083.0037360191, -1.2063,  0.0928,  0.0425,-43.6249, -7.1106,112.4268
1490284083.0038130283,1490284083.0060920715, -1.2063,  0.0928,  0.0425,-43.6249, -7.1106,112.4268
1490284083.0061678886,1490284083.0084509850, -1.2063,  0.0928,  0.0425,-43.6249, -7.1106,112.4268
1490284083.0085279942,1490284083.0108060837, -1.2063,  0.0928,  0.0425,-43.6249, -7.1106,112.4268
1490284083.0108819008,1490284083.0133221149, -1.2063,  0.0928,  0.0425,-43.6249, -7.1106,104.6143
1490284083.0134000778,1490284083.0158090591, -1.2063,  0.0928,  0.0425,-33.3405, -5.9662,104.0802
1490284083.0158851147,1490284083.0182950497, -1.2063,  0.0928,  0.0425,-33.3405, -5.9662,104.0802
1490284083.0183720589,1490284083.0207860470, -1.0244,  0.1013,  0.0435,-33.3405, -5.9662,104.0802
1490284083.0209679604,1490284083.0234220028, -1.0244,  0.1013,  0.0435,-33.3405, -5.9662,104.0802
1490284083.0234999657,1490284083.0259048939, -1.0244,  0.1013,  0.0435,-30.5786, -2.6855, 96.3135
1490284083.0259840488,1490284083.0283930302, -1.0244,  0.1013,  0.0435,-30.5786, -2.6855, 96.3135
1490284083.0284709930,1490284083.0308780670, -1.0244,  0.1013,  0.0435,-30.5786, -2.6855, 96.3135
1490284083.0309560299,1490284083.0333731174, -1.0244,  0.1013,  0.0435,-30.5786, -2.6855, 96.3135
1490284083.0334498882,1490284083.0358560085, -1.0244,  0.1013,  0.0435,-27.6794, -0.0610, 88.4094
1490284083.0359349251,1490284083.0383388996, -1.0244,  0.1013,  0.0435,-27.6794, -0.0610, 88.4094
1490284083.0384171009,1490284083.0408179760, -1.1665,  0.3235,  0.1614,-27.6794, -0.0610, 88.4094
1490284083.0408980846,1490284083.0433199406, -1.1665,  0.3235,  0.1614,-27.6794, -0.0610, 88.4094
1490284083.0433990955,1490284083.0458068848, -1.1665,  0.3235,  0.1614, -8.1482,  2.3804, 80.4901
1490284083.0458810329,1490284083.0482919216, -1.1665,  0.3235,  0.1614,-11.0931,  2.3804, 80.4901
1490284083.0483698845,1490284083.0507800579, -1.1665,  0.3235,  0.1614,-11.0931,  2.3804, 80.4901
1490284083.0508570671,1490284083.0532169342, -1.1665,  0.3235,  0.1614,-11.0931,  2.3804, 80.4901
1490284083.0532948971,1490284083.0555779934, -1.1665,  0.3235,  0.1614,-11.0931,  2.3804, 72.6776
1490284083.0556540489,1490284083.0579390526, -1.1665,  0.3235,  0.1614,  9.9945,  5.2032, 73.3490
1490284083.0580129623,1490284083.0602970123, -1.1458,  0.3440, -0.1106,  9.9945,  5.2032, 73.3490
1490284083.0603730679,1490284083.0627079010, -1.1458,  0.3440, -0.1106,  9.9945,  5.2032, 73.3490
1490284083.0627839565,1490284083.0651919842, -1.1458,  0.3440, -0.1106,  9.9945,  5.2032, 73.3490
1490284083.0652670860,1490284083.0676779747, -1.1458,  0.3440, -0.1106, 24.1547,  3.6621, 63.2629
1490284083.0677549839,1490284083.0701639652, -1.1458,  0.3440, -0.1106, 24.1547,  3.6621, 63.2629
1490284083.0702419281,1490284083.0726590157, -1.1458,  0.3440, -0.1106, 24.1547,  3.6621, 63.2629
1490284083.0727369785,1490284083.0751469135, -1.1458,  0.3440, -0.1106, 24.1547,  3.6621, 63.2629
1490284083.0752239227,1490284083.0776340961, -1.1458,  0.3440, -0.1106, 28.0609, -0.9155, 53.0243
1490284083.0777139664,1490284083.0801219940, -1.1028,  0.0798, -0.1084, 29.3274, -0.9155, 53.0243
1490284083.0802009106,1490284083.0826220512, -1.1028,  0.0798, -0.1084, 29.3274, -0.9155, 53.0243
1490284083.0827009678,1490284083.0851089954, -1.1028,  0.0798, -0.1084, 29.3274, -0.9155, 53.0243
1490284083.0851879120,1490284083.0875968933, -1.1028,  0.0798, -0.1084, 29.3274, -0.9155, 47.7448
1490284083.0876760483,1490284083.0900869370, -1.1028,  0.0798, -0.1084, 27.9388, -4.4250, 47.7448
1490284083.0901648998,1490284083.0926129818, -1.1028,  0.0798, -0.1084, 27.9388, -4.4250, 47.7448
1490284083.0926909447,1490284083.0950980186, -1.1028,  0.0798, -0.1084, 27.9388, -4.4250, 47.7448
1490284083.0951759815,1490284083.0975871086, -1.1028,  0.0798, -0.1084, 27.9388, -4.4250, 47.7448
1490284083.0976650715,1490284083.1000719070, -1.1028,  0.0920, -0.1060, 21.3318, -7.0953, 44.4183
1490284083.1001501083,1490284083.1025300026, -1.0940,  0.0920, -0.1060, 21.3318, -7.0953, 44.4183
1490284083.1026089191,1490284083.1048970222, -1.0940,  0.0920, -0.1060, 21.3318, -7.0953, 44.4183
1490284083.1049740314,1490284083.1072590351, -1.0940,  0.0920, -0.1060, 21.3318, -7.0953, 44.4183
1490284083.1073360443,1490284083.1096179485, -1.0940,  0.0920, -0.1060, 14.0228,-10.8032, 42.3584
1490284083.1096990108,1490284083.1120340824, -1.0940,  0.0920, -0.1060, 14.0228,-10.8032, 42.3584
1490284083.1121139526,1490284083.1145229340, -1.0940,  0.0920, -0.1060, 14.0228,-10.8032, 42.3584
1490284083.1146039963,1490284083.1170101166, -1.0940,  0.0920, -0.1060, 14.0228,-10.8032, 42.3584
1490284083.1170909405,1490284083.1194961071, -1.0940,  0.0920, -0.1606, 14.0228,-14.7095, 41.4429
1490284083.1195759773,1490284083.1220231056, -1.1533,  0.1050, -0.1606,  7.0953,-14.1144, 41.4429
1490284083.1221001148,1490284083.1245179176, -1.1533,  0.1050, -0.1606,  7.0953,-14.1144, 41.4429
1490284083.1247038841,1490284083.1271159649, -1.1533,  0.1050, -0.1606,  7.0953,-14.1144, 41.4429
1490284083.1271939278,1490284083.1296050549, -1.1533,  0.1050, -0.1606,  7.0953,-14.1144, 41.4429
1490284083.1296830177,1490284083.1321039200, -1.1533,  0.1050, -0.1606,  1.4191,-16.4795, 39.7186
1490284083.1321818829,1490284083.1345911026, -1.1533,  0.1050, -0.1606,  1.4191,-16.4795, 39.7186
1490284083.1346690655,1490284083.1370790005, -1.1533,  0.1050, -0.1606,  1.4191,-16.4795, 39.7186
1490284083.1371560097,1490284083.1395640373, -1.1533,  0.1050, -0.0713,  1.4191,-16.4795, 39.7186
1490284083.1396410465,1490284083.1420650482, -1.1389,  0.1218, -0.0713, -0.2747,-17.6086, 36.6516
1490284083.1421430111,1490284083.1444299221, -1.1389,  0.1218, -0.0713, -0.2747,-17.6086, 36.6516
1490284083.1445078850,1490284083.1467950344, -1.1389,  0.1218, -0.0713, -0.2747,-17.6086, 36.6516
1490284083.1468729973,1490284083.1491560936, -1.1389,  0.1218, -0.0713, -0.2747,-17.6086, 36.6516
1490284083.1492340565,1490284083.1515159607, -1.1389,  0.1218, -0.0713,  7.5378,-17.9138, 32.9132
1490284083.1515929699,1490284083.1539409161, -1.1389,  0.1218, -0.0713,  4.2877,-17.9138, 32.9132
1490284083.1540179253,1490284083.1562991142, -1.1389,  0.1218, -0.0713,  4.2877,-17.9138, 32.9132
1490284083.1563749313,1490284083.1586599350, -1.1389,  0.1218, -0.0713,  4.2877,-17.9138, 32.9132
1490284083.1587369442,1490284083.1610200405, -1.1086,  0.2107, -0.0032,  4.2877,-17.9138, 32.9132
1490284083.1610970497,1490284083.1634809971, -1.1086,  0.2107, -0.0032, 10.8948,-18.8446, 28.3051
1490284083.1635620594,1490284083.1659719944, -1.1086,  0.2107, -0.0032, 10.8948,-18.8446, 28.3051
1490284083.1660521030,1490284083.1684579849, -1.1086,  0.2107, -0.0032, 10.8948,-18.8446, 28.3051
1490284083.1685380936,1490284083.1709549427, -1.1086,  0.2107, -0.0032, 10.8948,-18.8446, 28.3051
1490284083.1710350513,1490284083.1734519005, -1.1086,  0.2107, -0.0032, 19.8059,-18.8141, 22.9340
1490284083.1735329628,1490284083.1759428978, -1.1086,  0.2107, -0.0032, 19.8059,-18.8141, 22.9340
1490284083.1760220528,1490284083.1784319878, -1.1086,  0.2107, -0.0032, 19.8059,-18.8141, 22.9340
1490284083.1785120964,1490284083.1809189320, -1.1155,  0.2056,  0.0615, 19.8059,-18.8141, 22.9340
1490284083.1809990406,1490284083.1834499836, -1.1155,  0.2056,  0.0615, 27.6337,-18.5394, 17.8833
1490284083.1835289001,1490284083.1859359741, -1.1155,  0.2056,  0.0615, 27.6337,-18.5394, 17.8833
1490284083.1860139370,1490284083.1884191036, -1.1155,  0.2056,  0.0615, 27.6337,-18.5394, 17.8833
1490284083.1884970665,1490284083.1909039021, -1.1155,  0.2056,  0.0615, 27.6337,-18.5394, 17.8833
1490284083.1909821033,1490284083.1933810711, -1.1155,  0.2056,  0.0615, 27.6337,-18.5394, 14.6484
1490284083.1934599876,1490284083.1957409382, -1.1155,  0.2056,  0.0615, 31.4484,-17.5018, 14.6484
1490284083.1958179474,1490284083.1981019974, -1.1155,  0.2056,  0.0615, 31.4484,-17.5018, 14.6484
1490284083.1981809139,1490284083.2004680634, -1.1311,  0.1245,  0.1050, 31.4484,-17.5018, 14.6484
1490284083.2005469799,1490284083.2028949261, -1.1311,  0.1245,  0.1050, 31.4484,-17.5018, 14.6484
1490284083.2029750347,1490284083.2053821087, -1.1311,  0.1245,  0.1050, 31.0669,-16.9373, 13.4735
1490284083.2054610252,1490284083.2079761028, -1.1311,  0.1245,  0.1050, 31.0669,-16.9373, 13.4735
1490284083.2080559731,1490284083.2103450298, -1.1311,  0.1245,  0.1050, 31.0669,-16.9373, 13.4735
1490284083.2104260921,1490284083.2128090858, -1.1311,  0.1245,  0.1050, 31.0669,-16.9373, 13.4735
1490284083.2128889561,1490284083.2152650356, -1.1311,  0.1245,  0.1050, 29.0985,-16.2659, 14.6942
1490284083.2153439522,1490284083.2178258896, -1.1311,  0.1245,  0.1050, 29.0985,-16.2659, 14.6942
1490284083.2179059982,1490284083.2202770710, -1.1416,  0.1316,  0.0496, 29.0985,-16.2659, 14.6942
1490284083.2203559875,1490284083.2233281136, -1.1416,  0.1316,  0.0496, 29.0985,-16.2659, 14.6942
1490284083.2234089375,1490284083.2258169651, -1.1416,  0.1316,  0.0496, 26.4435,-14.4501, 14.9994
1490284083.2258980274,1490284083.2283110619, -1.1416,  0.1316,  0.0496, 26.4435,-14.4501, 14.9994
1490284083.2285130024,1490284083.2309269905, -1.1416,  0.1316,  0.0496, 26.4435,-14.4501, 14.9994
1490284083.2310070992,1490284083.2334311008, -1.1416,  0.1316,  0.0496, 26.4435,-14.4501, 14.9994
1490284083.2335100174,1490284083.2359158993, -1.1416,  0.1316,  0.0496, 26.4435,-12.6038, 16.4185
1490284083.2359969616,1490284083.2384080887, -1.1416,  0.1316,  0.0496, 22.9492,-12.6038, 16.4185
1490284083.2384870052,1490284083.2409000397, -1.1250,  0.1423,  0.0579, 22.9492,-12.6038, 16.4185
1490284083.2409799099,1490284083.2433669567, -1.1250,  0.1423,  0.0579, 22.9492,-12.6038, 16.4185
1490284083.2434470654,1490284083.2457311153, -1.1250,  0.1423,  0.0579, 22.9492,-12.6038, 16.4185
1490284083.2458090782,1490284083.2480919361, -1.1250,  0.1423,  0.0579, 20.6757,-11.1237, 17.2729
1490284083.2481710911,1490284083.2506239414, -1.1250,  0.1423,  0.0579, 20.6757,-11.1237, 17.2729
1490284083.2507059574,1490284083.2530300617, -1.1250,  0.1423,  0.0579, 20.6757,-11.1237, 17.2729
1490284083.2531089783,1490284083.2553908825, -1.1250,  0.1423,  0.0579, 20.6757,-11.1237, 17.2729
1490284083.2554700375,1490284083.2577528954, -1.1250,  0.1423,  0.0579, 19.6075, -9.4910, 17.0441
1490284083.2578310966,1490284083.2601180077, -1.1875,  0.1736,  0.0896, 19.6075, -9.4910, 17.0441
1490284083.2601969242,1490284083.2629959583, -1.1521,  0.1736,  0.0896, 19.6075, -9.4910, 17.0441
1490284083.2630751133,1490284083.2654829025, -1.1521,  0.1736,  0.0896, 19.6075, -9.4910, 17.0441
1490284083.2655630112,1490284083.2687909603, -1.1521,  0.1736,  0.0896, 21.9421, -7.9193, 17.9138
1490284083.2688720226,1490284083.2712810040, -1.1521,  0.1736,  0.0896, 21.9421, -7.9193, 17.9138
1490284083.2713589668,1490284083.2737729549, -1.1521,  0.1736,  0.0896, 21.9421, -7.9193, 17.9138
1490284083.2738509178,1490284083.2762629986, -1.1521,  0.1736,  0.0896, 21.9421, -7.9193, 17.9138
1490284083.2763390541,1490284083.2789089680, -1.1521,  0.1736,  0.0896, 24.6429, -7.1869, 18.7378
1490284083.2789890766,1490284083.2813980579, -1.1379,  0.1421,  0.0876, 24.6429, -7.1869, 18.7378
1490284083.2814750671,1490284083.2838070393, -1.1379,  0.1421,  0.0876, 24.6429, -7.1869, 18.7378
1490284083.2838840485,1490284083.2861659527, -1.1379,  0.1421,  0.0876, 24.6429, -7.1869, 18.7378
1490284083.2862410545,1490284083.2885310650, -1.1379,  0.1421,  0.0876, 24.6429, -7.1869, 18.9667
1490284083.2886068821,1490284083.2908940315, -1.1379,  0.1421,  0.0876, 27.0386, -6.9427, 18.9667
1490284083.2909710407,1490284083.2932629585, -1.1379,  0.1421,  0.0876, 27.0386, -6.9427, 18.9667
1490284083.2933409214,1490284083.2956309319, -1.1379,  0.1421,  0.0876, 27.0386, -6.9427, 18.9667
1490284083.2957088947,1490284083.2979910374, -1.1379,  0.1421,  0.0876, 27.0386, -6.9427, 18.9667
1490284083.2980680466,1490284083.3003559113, -1.1304,  0.1963,  0.0598, 29.5105, -6.0272, 20.7520
1490284083.3004341125,1490284083.3027710915, -1.1304,  0.1963,  0.0598, 29.5105, -6.0272, 20.7520
1490284083.3028490543,1490284083.3052580357, -1.1304,  0.1963,  0.0598, 29.5105, -6.0272, 20.7520
1490284083.3053359985,1490284083.3077449799, -1.1304,  0.1963,  0.0598, 29.5105, -6.0272, 20.7520
1490284083.3078229427,1490284083.3102269173, -1.1304,  0.1963,  0.0598, 31.3568, -4.9744, 23.2239
1490284083.3103039265,1490284083.3126850128, -1.1304,  0.1963,  0.0598, 31.3568, -4.9744, 23.2239
1490284083.3127620220,1490284083.3150510788, -1.1304,  0.1963,  0.0598, 31.3568, -4.9744, 23.2239
1490284083.3151280880,1490284083.3174159527, -1.1304,  0.1963,  0.0598, 31.3568, -4.9744, 23.2239
1490284083.3174920082,1490284083.3197729588, -1.1304,  0.1338,  0.0505, 31.3568, -4.9744, 27.1301
1490284083.3198499680,1490284083.3223009109, -1.1211,  0.1526,  0.0505, 32.3639, -4.5013, 24.6277
1490284083.3223888874,1490284083.3246870041, -1.1211,  0.1526,  0.0505, 32.3639, -4.5013, 24.6277
1490284083.3247659206,1490284083.3270499706, -1.1211,  0.1526,  0.0505, 32.3639, -4.5013, 24.6277
1490284083.3271279335,1490284083.3294088840, -1.1211,  0.1526,  0.0505, 32.3639, -4.5013, 24.6277
1490284083.3294858932,1490284083.3317730427, -1.1211,  0.1526,  0.0505, 31.5552, -2.6093, 26.5350
1490284083.3319759369,1490284083.3345580101, -1.1211,  0.1526,  0.0505, 31.5552, -2.6093, 26.5350
1490284083.3346369267,1490284083.3370471001, -1.1211,  0.1526,  0.0505, 31.5552, -2.6093, 26.5350
1490284083.3371241093,1490284083.3395309448, -1.1211,  0.1526,  0.0505, 31.5552, -2.6093, 26.5350
1490284083.3396079540,1490284083.3420350552, -1.1494,  0.1377,  0.0288, 29.7241, -1.0529, 29.7546
1490284083.3421130180,1490284083.3444008827, -1.1494,  0.1377,  0.0288, 29.7241, -1.0529, 29.7546
1490284083.3444778919,1490284083.3467640877, -1.1494,  0.1377,  0.0288, 29.7241, -1.0529, 29.7546
1490284083.3468410969,1490284083.3491239548, -1.1494,  0.1377,  0.0288, 29.7241, -1.0529, 29.7546
1490284083.3492009640,1490284083.3514881134, -1.1494,  0.1377,  0.0288, 29.7241, -1.0529, 33.6609
1490284083.3515648842,1490284083.3539669514, -1.1494,  0.1377,  0.0288, 26.6571,  0.4120, 32.2876
1490284083.3540449142,1490284083.3564579487, -1.1494,  0.1377,  0.0288, 26.6571,  0.4120, 32.2876
1490284083.3565349579,1490284083.3589448929, -1.1494,  0.1377,  0.0288, 26.6571,  0.4120, 32.2876
1490284083.3590240479,1490284083.3614389896, -1.1731,  0.1062,  0.1025, 26.6571,  0.4120, 32.2876
1490284083.3615179062,1490284083.3638489246, -1.1731,  0.1062,  0.1025, 23.8342,  2.3499, 34.8816
1490284083.3639268875,1490284083.3662090302, -1.1731,  0.1062,  0.1025, 23.8342,  2.3499, 34.8816
1490284083.3662869930,1490284083.3686490059, -1.1731,  0.1062,  0.1025, 23.8342,  2.3499, 34.8816
1490284083.3687269688,1490284083.3710141182, -1.1731,  0.1062,  0.1025, 23.8342,  2.3499, 34.8816
1490284083.3710920811,1490284083.3736450672, -1.1731,  0.1062,  0.1025, 21.0419,  4.1809, 38.7115
1490284083.3737239838,1490284083.3760929108, -1.1731,  0.1062,  0.1025, 21.0419,  4.1809, 38.7115
1490284083.3761699200,1490284083.3787970543, -1.1731,  0.1062,  0.1025, 21.0419,  4.1809, 38.7115
1490284083.3788759708,1490284083.3812849522, -1.1428,  0.1555,  0.1069, 21.0419,  4.1809, 38.7115
1490284083.3813619614,1490284083.3838241100, -1.1428,  0.1555,  0.1069, 21.0419,  4.1809, 41.6412
1490284083.3839020729,1490284083.3863089085, -1.1428,  0.1555,  0.1069, 16.2811,  7.4921, 41.6412
1490284083.3863849640,1490284083.3887910843, -1.1428,  0.1555,  0.1069, 16.2811,  7.4921, 41.6412
1490284083.3888680935,1490284083.3912780285, -1.1428,  0.1555,  0.1069, 16.2811,  7.4921, 41.6412
1490284083.3913540840,1490284083.3936910629, -1.1428,  0.1555,  0.1069, 16.2811,  7.4921, 45.5475
1490284083.3937671185,1490284083.3960509300, -1.1428,  0.1555,  0.1069, 10.2539, 11.3068, 43.8080
1490284083.3961310387,1490284083.3984129429, -1.1428,  0.1555,  0.1069, 10.2539, 11.3068, 43.8080
1490284083.3984930515,1490284083.4007759094, -1.1343,  0.1489,  0.1777, 10.2539, 11.3068, 43.8080
1490284083.4008541107,1490284083.4031929970, -1.1343,  0.1489,  0.1777, 10.2539, 11.3068, 43.8080
1490284083.4032719135,1490284083.4055569172, -1.1343,  0.1489,  0.1777,  3.7231, 14.6942, 46.3104
1490284083.4056329727,1490284083.4079101086, -1.1343,  0.1489,  0.1777,  3.7231, 14.6942, 46.3104
1490284083.4079859257,1490284083.4102680683, -1.1343,  0.1489,  0.1777,  3.7231, 14.6942, 46.3104
1490284083.4103429317,1490284083.4126439095, -1.1343,  0.1489,  0.1777,  3.7231, 14.6942, 46.3104
1490284083.4127199650,1490284083.4150030613, -1.1343,  0.1489,  0.1777,  3.7231, 14.6942, 50.2167
1490284083.4150800705,1490284083.4173629284, -1.1343,  0.1489,  0.1777, -1.7700, 16.9067, 48.4314
1490284083.4174399376,1490284083.4197249413, -1.1343,  0.1489,  0.1169, -1.7700, 16.9067, 48.4314
1490284083.4198019505,1490284083.4221549034, -1.1262,  0.2173,  0.1169, -1.7700, 16.9067, 48.4314
1490284083.4222419262,1490284083.4245369434, -1.1262,  0.2173,  0.1169, -1.7700, 16.9067, 48.4314
1490284083.4246149063,1490284083.4268949032, -1.1262,  0.2173,  0.1169, -4.6997, 18.7988, 51.0406
1490284083.4269709587,1490284083.4292540550, -1.1262,  0.2173,  0.1169, -4.6997, 18.7988, 51.0406
1490284083.4293310642,1490284083.4316189289, -1.1262,  0.2173,  0.1169, -4.6997, 18.7988, 51.0406
1490284083.4316959381,1490284083.4341719151, -1.1262,  0.2173,  0.1169, -4.6997, 18.7988, 51.0406
1490284083.4343659878,1490284083.4367680550, -1.1262,  0.2173,  0.1169, -4.6997, 21.2708, 54.4891
1490284083.4368460178,1490284083.4392380714, -1.1262,  0.2173,  0.1169, -5.6458, 21.2708, 54.4891
1490284083.4393150806,1490284083.4417059422, -1.1702,  0.2576,  0.0029, -5.6458, 21.2708, 54.4891
1490284083.4417839050,1490284083.4442191124, -1.1702,  0.2576,  0.0029, -5.6458, 21.2708, 54.4891
1490284083.4442970753,1490284083.4466919899, -1.1702,  0.2576,  0.0029, -5.6458, 21.2708, 58.3954
1490284083.4467699528,1490284083.4491629601, -1.1702,  0.2576,  0.0029, -4.5624, 25.7263, 57.6172
1490284083.4492399693,1490284083.4516289234, -1.1702,  0.2576,  0.0029, -4.5624, 25.7263, 57.6172
1490284083.4517059326,1490284083.4540181160, -1.1702,  0.2576,  0.0029, -4.5624, 25.7263, 57.6172
1490284083.4540939331,1490284083.4563829899, -1.1702,  0.2576,  0.0029, -4.5624, 25.7263, 57.6172
1490284083.4564599991,1490284083.4587459564, -1.1702,  0.2576,  0.0029, -4.5013, 26.7487, 60.8368
1490284083.4588229656,1490284083.4611051083, -1.1638,  0.3003, -0.0132, -4.5013, 26.7487, 60.8368
1490284083.4611830711,1490284083.4634768963, -1.1638,  0.3003, -0.0132, -4.5013, 26.7487, 60.8368
1490284083.4635550976,1490284083.4658439159, -1.1638,  0.3003, -0.0132, -4.5013, 26.7487, 60.8368
1490284083.4659209251,1490284083.4682009220, -1.1638,  0.3003, -0.0132, -4.5013, 26.7487, 62.8204
1490284083.4682779312,1490284083.4705619812, -1.1638,  0.3003, -0.0132, -2.5940, 26.6571, 62.8204
1490284083.4706389904,1490284083.4730329514, -1.1638,  0.3003, -0.0132, -2.5940, 26.6571, 62.8204
1490284083.4731109142,1490284083.4755160809, -1.1638,  0.3003, -0.0132, -2.5940, 26.6571, 62.8204
1490284083.4755930901,1490284083.4779999256, -1.1638,  0.3003, -0.0132, -2.5940, 26.6571, 62.8204
1490284083.4780778885,1490284083.4804849625, -1.1638,  0.3127,  0.0010, -1.1749, 26.5656, 63.1256
1490284083.4805629253,1490284083.4830119610, -1.2222,  0.3127,  0.0010, -1.1749, 26.5656, 63.1256
1490284083.4830899239,1490284083.4855020046, -1.2222,  0.3127,  0.0010, -1.1749, 26.5656, 63.1256
1490284083.4855790138,1490284083.4880371094, -1.2222,  0.3127,  0.0010, -1.1749, 26.5656, 63.1256
1490284083.4881970882,1490284083.4906079769, -1.2222,  0.3127,  0.0010,  3.0823, 25.0854, 62.8052
1490284083.4906859398,1490284083.4931008816, -1.2222,  0.3127,  0.0010,  3.0823, 25.0854, 62.8052
1490284083.4931790829,1490284083.4955940247, -1.2222,  0.3127,  0.0010,  3.0823, 25.0854, 62.8052
1490284083.4956710339,1490284083.4980800152, -1.2222,  0.3127,  0.0010,  3.0823, 25.0854, 62.8052
1490284083.4981579781,1490284083.5005640984, -1.2847,  0.3999, -0.0520,  9.4147, 22.2626, 63.5376
1490284083.5006420612,1490284083.5030190945, -1.2644,  0.3999, -0.0520,  9.4147, 22.2626, 63.5376
1490284083.5030970573,1490284083.5053880215, -1.2644,  0.3999, -0.0520,  9.4147, 22.2626, 63.5376
1490284083.5054650307,1490284083.5077540874, -1.2644,  0.3999, -0.0520,  9.4147, 22.2626, 63.5376
1490284083.5078299046,1490284083.5101199150, -1.2644,  0.3999, -0.0520,  9.4147, 22.2626, 66.1163
1490284083.5101981163,1490284083.5124890804, -1.2644,  0.3999, -0.0520, 14.9994, 22.0947, 66.1163
1490284083.5125689507,1490284083.5148530006, -1.2644,  0.3999, -0.0520, 14.9994, 22.0947, 66.1163
1490284083.5149331093,1490284083.5172140598, -1.2644,  0.3999, -0.0520, 14.9994, 22.0947, 66.1163
1490284083.5172929764,1490284083.5195760727, -1.2644,  0.3999, -0.1770, 14.9994, 22.0947, 66.1163
1490284083.5196540356,1490284083.5219399929, -1.2820,  0.3569, -0.1292, 18.9209, 22.0032, 68.6493
1490284083.5220730305,1490284083.5243599415, -1.2820,  0.3569, -0.1292, 18.9209, 22.0032, 68.6493
1490284083.5244390965,1490284083.5267250538, -1.2820,  0.3569, -0.1292, 18.9209, 22.0032, 68.6493
1490284083.5268039703,1490284083.5290958881, -1.2820,  0.3569, -0.1292, 18.9209, 22.0032, 68.6493
1490284083.5291740894,1490284083.5314600468, -1.2820,  0.3569, -0.1292, 18.9209, 22.0032, 72.2656
1490284083.5315399170,1490284083.5338358879, -1.2820,  0.3569, -0.1292, 18.3258, 23.4070, 72.2656
1490284083.5340189934,1490284083.5363039970, -1.2820,  0.3569, -0.1292, 18.3258, 23.4070, 72.2656
1490284083.5363829136,1490284083.5386629105, -1.2820,  0.3569, -0.1292, 18.3258, 23.4070, 72.2656
1490284083.5387411118,1490284083.5410239697, -1.2708,  0.3496, -0.2332, 18.3258, 23.4070, 72.2656
1490284083.5411040783,1490284083.5434899330, -1.2708,  0.3496, -0.2332, 17.6086, 24.9023, 76.0956
1490284083.5435700417,1490284083.5458559990, -1.2708,  0.3496, -0.2332, 17.6086, 24.9023, 76.0956
1490284083.5459349155,1490284083.5482220650, -1.2708,  0.3496, -0.2332, 17.6086, 24.9023, 76.0956
1490284083.5483009815,1490284083.5505840778, -1.2708,  0.3496, -0.2332, 17.6086, 24.9023, 76.0956
1490284083.5506629944,1490284083.5530989170, -1.2708,  0.3496, -0.2332, 13.7024, 25.8789, 79.5135
1490284083.5531790257,1490284083.5554590225, -1.2708,  0.3496, -0.2332, 14.5874, 25.8789, 79.5135
1490284083.5555379391,1490284083.5578210354, -1.2708,  0.3496, -0.2332, 14.5874, 25.8789, 79.5135
1490284083.5578999519,1490284083.5601871014, -1.2708,  0.2871, -0.3245, 14.5874, 25.8789, 79.5135
1490284083.5602669716,1490284083.5626330376, -1.3984,  0.3027, -0.3245, 14.5874, 25.8789, 79.5135
1490284083.5627129078,1490284083.5651168823, -1.3984,  0.3027, -0.3245,  9.6588, 28.2135, 82.6263
1490284083.5651938915,1490284083.5676000118, -1.3984,  0.3027, -0.3245,  9.6588, 28.2135, 82.6263
1490284083.5676770210,1490284083.5700819492, -1.3984,  0.3027, -0.3245,  9.6588, 28.2135, 82.6263
1490284083.5701599121,1490284083.5725739002, -1.3984,  0.3027, -0.3245,  9.6588, 28.2135, 82.6263
1490284083.5726509094,1490284083.5750539303, -1.3984,  0.3027, -0.3245,  5.0354, 29.2816, 88.8824
1490284083.5751309395,1490284083.5775361061, -1.3984,  0.3027, -0.3245,  5.0354, 29.2816, 88.8824
1490284083.5776140690,1490284083.5800249577, -1.3984,  0.3027, -0.2769,  5.0354, 29.2816, 88.8824
1490284083.5801019669,1490284083.5825209618, -1.4207,  0.3347, -0.2769,  5.0354, 29.2816, 88.8824
1490284083.5825979710,1490284083.5850019455, -1.4207,  0.3347, -0.2769,  3.3264, 28.3356, 93.7958
1490284083.5850799084,1490284083.5874910355, -1.4207,  0.3347, -0.2769,  3.3264, 28.3356, 93.7958
1490284083.5875680447,1490284083.5899701118, -1.4207,  0.3347, -0.2769,  3.3264, 28.3356, 93.7958
1490284083.5900468826,1490284083.5924499035, -1.4207,  0.3347, -0.2769,  3.3264, 28.3356, 93.7958
1490284083.5925269127,1490284083.5948100090, -1.4207,  0.3347, -0.2769,  3.3264, 28.3356,101.3947
1490284083.5948860645,1490284083.5971660614, -1.4207,  0.3347, -0.2769,  3.0518, 29.5868,101.3947
1490284083.5972430706,1490284083.5995318890, -1.4207,  0.3347, -0.2769,  3.0518, 29.5868,101.3947
1490284083.5996079445,1490284083.6018919945, -1.5371,  0.3020, -0.0911,  3.0518, 29.5868,101.3947
1490284083.6019699574,1490284083.6044359207, -1.5371,  0.3020, -0.0911,  3.0518, 29.5868,101.3947
1490284083.6045138836,1490284083.6069219112, -1.5371,  0.3020, -0.0911,  5.2795, 29.9683,110.9314
1490284083.6070010662,1490284083.6094059944, -1.5371,  0.3020, -0.0911,  5.2795, 29.9683,110.9314
1490284083.6094830036,1490284083.6118910313, -1.5371,  0.3020, -0.0911,  5.2795, 29.9683,110.9314
1490284083.6119689941,1490284083.6144189835, -1.5371,  0.3020, -0.0911,  5.2795, 29.9683,110.9314
1490284083.6144969463,1490284083.6169059277, -1.5371,  0.3020, -0.0911, 10.1624, 29.3884,120.7275
1490284083.6169860363,1490284083.6198220253, -1.5371,  0.3020, -0.0911, 10.1624, 29.3884,120.7275
1490284083.6199049950,1490284083.6224260330, -1.6533,  0.2676, -0.0359, 10.1624, 29.3884,120.7275
1490284083.6225059032,1490284083.6247930527, -1.6533,  0.2676, -0.0359, 10.1624, 29.3884,120.7275
1490284083.6248719692,1490284083.6271541119, -1.6533,  0.2676, -0.0359, 17.9749, 31.0669,130.4626
1490284083.6272330284,1490284083.6295139790, -1.6533,  0.2676, -0.0359, 17.3035, 31.0669,130.4626
1490284083.6295940876,1490284083.6318759918, -1.6533,  0.2676, -0.0359, 17.3035, 31.0669,130.4626
1490284083.6319549084,1490284083.6342270374, -1.6533,  0.2676, -0.0359, 17.3035, 31.0669,130.4626
1490284083.6343080997,1490284083.6365880966, -1.6533,  0.2676, -0.0359, 17.3035, 31.0669,130.4626
1490284083.6367759705,1490284083.6390609741, -1.6533,  0.2676, -0.0359, 27.8015, 33.4778,138.0615
1490284083.6391420364,1490284083.6414260864, -1.8257,  0.1323,  0.1045, 27.8015, 33.4778,138.0615
1490284083.6415059566,1490284083.6438028812, -1.8257,  0.1323,  0.1045, 27.8015, 33.4778,138.0615
1490284083.6438829899,1490284083.6461689472, -1.8257,  0.1323,  0.1045, 27.8015, 33.4778,138.0615
1490284083.6462481022,1490284083.6485319138, -1.8257,  0.1323,  0.1045, 38.5284, 32.5775,147.0947
1490284083.6486110687,1490284083.6508998871, -1.8257,  0.1323,  0.1045, 38.5284, 32.5775,147.0947
1490284083.6509790421,1490284083.6532659531, -1.8257,  0.1323,  0.1045, 38.5284, 32.5775,147.0947
1490284083.6533451080,1490284083.6556220055, -1.8257,  0.1323,  0.1045, 38.5284, 32.5775,147.0947
1490284083.6557009220,1490284083.6579849720, -1.8257,  0.1323,  0.1045, 38.5284, 32.5775,154.9072
1490284083.6580638885,1490284083.6603429317, -1.8257, -0.0552,  0.1453, 52.3529, 32.3029,155.9906
1490284083.6604220867,1490284083.6627109051, -1.9915, -0.0442,  0.1453, 52.3529, 32.3029,155.9906
1490284083.6627910137,1490284083.6650810242, -1.9915, -0.0442,  0.1453, 52.3529, 32.3029,155.9906
1490284083.6651608944,1490284083.6674470901, -1.9915, -0.0442,  0.1453, 52.3529, 32.3029,155.9906
1490284083.6675269604,1490284083.6698200703, -1.9915, -0.0442,  0.1453, 64.0869, 31.2042,161.6364
1490284083.6698999405,1490284083.6722419262, -1.9915, -0.0442,  0.1453, 64.0869, 31.2042,161.6364
1490284083.6723210812,1490284083.6747360229, -1.9915, -0.0442,  0.1453, 64.0869, 31.2042,161.6364
1490284083.6748170853,1490284083.6772329807, -1.9915, -0.0442,  0.1453, 64.0869, 31.2042,161.6364
1490284083.6773118973,1490284083.6797211170, -1.9915, -0.0442,  0.1453, 64.0869, 31.2042,170.2423
1490284083.6798009872,1490284083.6822159290, -2.5139, -0.3628,  0.3804, 69.8547, 29.7089,170.2423
1490284083.6822950840,1490284083.6845910549, -2.5139, -0.3628,  0.3804, 69.8547, 29.7089,170.2423
1490284083.6846709251,1490284083.6869559288, -2.5139, -0.3628,  0.3804, 69.8547, 29.7089,170.2423
1490284083.6870338917,1490284083.6893219948, -2.5139, -0.3628,  0.3804, 69.8547, 29.7089,170.2423
1490284083.6893999577,1490284083.6916899681, -2.5139, -0.3628,  0.3804, 64.1022, 26.5808,182.4493
1490284083.6917688847,1490284083.6942200661, -2.5139, -0.3628,  0.3804, 64.1022, 26.5808,182.4493
1490284083.6943008900,1490284083.6967198849, -2.5139, -0.3628,  0.3804, 64.1022, 26.5808,182.4493
1490284083.6968009472,1490284083.6992120743, -2.5139, -0.3628,  0.3804, 64.1022, 26.5808,182.4493
1490284083.6992919445,1490284083.7017021179, -2.2832,  0.1941,  0.0483, 32.4097, 24.3835,196.7773
1490284083.7017819881,1490284083.7042410374, -2.2832,  0.1941,  0.0483, 32.4097, 24.3835,196.7773
1490284083.7043199539,1490284083.7067329884, -2.2832,  0.1941,  0.0483, 32.4097, 24.3835,196.7773
1490284083.7068119049,1490284083.7092258930, -2.2832,  0.1941,  0.0483, 32.4097, 24.3835,196.7773
1490284083.7093050480,1490284083.7117180824, -2.2832,  0.1941,  0.0483,  8.9722, 29.2511,205.3833
1490284083.7117960453,1490284083.7142529488, -2.2832,  0.1941,  0.0483, 11.2457, 29.2511,205.3833
1490284083.7143321037,1490284083.7167479992, -2.2832,  0.1941,  0.0483, 11.2457, 29.2511,205.3833
1490284083.7168281078,1490284083.7192389965, -2.2832,  0.1941,  0.0483, 11.2457, 29.2511,205.3833
1490284083.7193179131,1490284083.7217299938, -1.9324,  0.1191,  0.1487, 11.2457, 29.2511,203.3386
1490284083.7218101025,1490284083.7242391109, -1.9324,  0.1191,  0.1487, 12.7258, 31.9672,203.3386
1490284083.7243189812,1490284083.7267289162, -1.9324,  0.1191,  0.1487, 12.7258, 31.9672,203.3386
1490284083.7268071175,1490284083.7292249203, -1.9324,  0.1191,  0.1487, 12.7258, 31.9672,203.3386
1490284083.7293040752,1490284083.7317130566, -1.9324,  0.1191,  0.1487, 12.7258, 31.9672,203.3386
1490284083.7317919731,1490284083.7341289520, -1.9324,  0.1191,  0.1487,  5.7678, 25.4517,189.7583
1490284083.7342050076,1490284083.7364969254, -1.9324,  0.1191,  0.1487,  5.7678, 25.4517,189.7583
1490284083.7365729809,1490284083.7388570309, -1.9324,  0.1191,  0.1487,  5.7678, 25.4517,189.7583
1490284083.7390410900,1490284083.7413299084, -1.7078,  0.3193, -0.0471,  5.7678, 25.4517,189.7583
1490284083.7414059639,1490284083.7438108921, -1.7078,  0.3193, -0.0471, -8.9111, 29.9377,178.1006
1490284083.7438890934,1490284083.7463309765, -1.7078,  0.3193, -0.0471, -8.9111, 29.9377,178.1006
1490284083.7464098930,1490284083.7488219738, -1.7078,  0.3193, -0.0471, -8.9111, 29.9377,178.1006
1490284083.7488999367,1490284083.7513051033, -1.7078,  0.3193, -0.0471, -8.9111, 29.9377,178.1006
1490284083.7513830662,1490284083.7538409233, -1.7078,  0.3193, -0.0471, -8.9111, 43.2281,172.3022
1490284083.7539179325,1490284083.7563350201, -1.7078,  0.3193, -0.0471,-13.0310, 43.2281,172.3022
1490284083.7564139366,1490284083.7588269711, -1.7078,  0.3193, -0.0471,-13.0310, 43.2281,172.3022
1490284083.7589070797,1490284083.7613170147, -1.4331,  0.2480,  0.0332,-13.0310, 43.2281,172.3022
1490284083.7613980770,1490284083.7638289928, -1.4331,  0.2480,  0.0332,-13.0310, 43.2281,159.2560
1490284083.7639079094,1490284083.7663159370, -1.4331,  0.2480,  0.0332,-20.5536, 47.9431,159.2560
1490284083.7663950920,1490284083.7688069344, -1.4331,  0.2480,  0.0332,-20.5536, 47.9431,159.2560
1490284083.7688860893,1490284083.7712979317, -1.4331,  0.2480,  0.0332,-20.5536, 47.9431,159.2560
1490284083.7713758945,1490284083.7738358974, -1.4331,  0.2480,  0.0332,-20.5536, 47.9431,159.2560
1490284083.7739150524,1490284083.7763319016, -1.4331,  0.2480,  0.0332,-23.2086, 44.6014,114.7919
1490284083.7764120102,1490284083.7788240910, -1.4331,  0.2480,  0.0332,-23.2086, 44.6014,114.7919
1490284083.7789030075,1490284083.7813150883, -0.6375,  0.0730,  0.1113,-23.2086, 44.6014,114.7919
1490284083.7813971043,1490284083.7837359905, -0.6375,  0.0730,  0.1113,-23.2086, 44.6014,114.7919
1490284083.7838170528,1490284083.7861039639, -0.6375,  0.0730,  0.1113, -4.9438, 34.1187, 72.8760
1490284083.7861831188,1490284083.7884719372, -0.6375,  0.0730,  0.1113, -4.9438, 34.1187, 72.8760
1490284083.7885499001,1490284083.7908329964, -0.6375,  0.0730,  0.1113, -4.9438, 34.1187, 72.8760
1490284083.7909109592,1490284083.7932190895, -0.6375,  0.0730,  0.1113, -4.9438, 34.1187, 72.8760
1490284083.7932980061,1490284083.7955830097, -0.6375,  0.0730,  0.1113, -4.9438, 34.1187, 43.1213
1490284083.7956609726,1490284083.7979419231, -0.6375,  0.0730,  0.1113, 12.3138, 15.2740, 43.1213
1490284083.7980220318,1490284083.8003048897, -0.6375,  0.0730, -0.1685, 12.3138, 15.2740, 43.1213
1490284083.8003849983,1490284083.8027369976, -0.1921,  0.1208, -0.1685, 12.3138, 15.2740, 43.1213
1490284083.8028171062,1490284083.8052299023, -0.1921,  0.1208, -0.1685, 12.3138, 15.2740, 43.1213
1490284083.8053090572,1490284083.8077270985, -0.1921,  0.1208, -0.1685,  7.2937,  5.4016, -0.4272
1490284083.8077979088,1490284083.8102118969, -0.1921,  0.1208, -0.1685,  7.2937,  5.4016, -0.4272
1490284083.8102838993,1490284083.8127040863, -0.1921,  0.1208, -0.1685,  7.2937,  5.4016, -0.4272
1490284083.8127748966,1490284083.8151869774, -0.1921,  0.1208, -0.1685,  7.2937,  5.4016, -0.4272
1490284083.8152580261,1490284083.8176660538, -0.1921,  0.1208, -0.1685, -8.3923,  8.1024,-39.1998
1490284083.8177409172,1490284083.8201510906, -0.1921,  0.1208, -0.1685, -8.3923,  8.1024,-39.1998
1490284083.8202269077,1490284083.8226490021, -0.5820, -0.4148, -0.1621, -8.3923,  8.1024,-39.1998
1490284083.8227250576,1490284083.8251359463, -0.5820, -0.4148, -0.1621, -8.3923,  8.1024,-39.1998
1490284083.8252110481,1490284083.8276269436, -0.5820, -0.4148, -0.1621, -8.3923,  8.1024,-70.9076
1490284083.8277020454,1490284083.8301069736, -0.5820, -0.4148, -0.1621,-15.9760, 10.4675,-70.9076
1490284083.8301870823,1490284083.8326580524, -0.5820, -0.4148, -0.1621,-15.9760, 10.4675,-70.9076
1490284083.8327369690,1490284083.8351531029, -0.5820, -0.4148, -0.1621,-15.9760, 10.4675,-70.9076
1490284083.8352329731,1490284083.8376390934, -0.5820, -0.4148, -0.1621,-15.9760, 10.4675,-94.3451
1490284083.8377180099,1490284083.8401238918, -0.5820, -0.4148, -0.1621,-24.6124,  9.4910,-95.0775
1490284083.8402020931,1490284083.8426020145, -0.4365, -0.3784, -0.0239,-24.6124,  9.4910,-95.0775
1490284083.8427870274,1490284083.8450729847, -0.4365, -0.3784, -0.0239,-24.6124,  9.4910,-95.0775
1490284083.8451519012,1490284083.8474409580, -0.4365, -0.3784, -0.0239,-24.6124,  9.4910,-95.0775
1490284083.8475179672,1490284083.8498060703, -0.4365, -0.3784, -0.0239,-30.3345,  7.9651,-116.1346
1490284083.8498830795,1490284083.8522279263, -0.4365, -0.3784, -0.0239,-30.3345,  7.9651,-116.1346
1490284083.8523039818,1490284083.8547039032, -0.4365, -0.3784, -0.0239,-30.3345,  7.9651,-116.1346
1490284083.8547809124,1490284083.8571779728, -0.4365, -0.3784, -0.0239,-30.3345,  7.9651,-116.1346
1490284083.8572540283,1490284083.8596470356, -0.4365, -0.3784, -0.0239,-34.2407,  5.8594,-135.2692
1490284083.8597240448,1490284083.8621420860, -0.3479, -0.1606,  0.0093,-35.0342,  5.8594,-135.2692
1490284083.8622210026,1490284083.8646199703, -0.3479, -0.1606,  0.0093,-35.0342,  5.8594,-135.2692
1490284083.8646979332,1490284083.8671019077, -0.3479, -0.1606,  0.0093,-35.0342,  5.8594,-135.2692
1490284083.8671810627,1490284083.8695819378, -0.3479, -0.1606,  0.0093,-35.0342,  5.8594,-153.9459
