timestamp_before,timestamp_after,accel_x,accel_y,accel_z,gyro_x,gyro_y,gryo_z
1489428116.0292870998,1489428116.0315890312, -1.4009, -0.0137, -0.0762, -0.9766, -1.9836, -3.3112
1489428116.0317230225,1489428116.0340020657, -1.4009, -0.0137, -0.0762, -0.9766, -2.0294, -3.7994
1489428116.0340740681,1489428116.0363519192, -1.4009, -0.0137, -0.0762, -1.0986, -2.0294, -3.7994
1489428116.0364210606,1489428116.0386929512, -1.4009, -0.0137, -0.0762, -1.0986, -2.0294, -3.7994
1489428116.0387630463,1489428116.0411291122, -1.4009, -0.0002, -0.0515, -1.0986, -2.0294, -3.7994
1489428116.0412058830,1489428116.0434920788, -1.1377, -0.0002, -0.0515, -1.0986, -2.0294, -3.7994
1489428116.0435619354,1489428116.0458381176, -1.1377, -0.0002, -0.0515, -0.8087, -2.5482, -5.0354
1489428116.0459079742,1489428116.0481910706, -1.1377, -0.0002, -0.0515, -0.8087, -2.5482, -5.0354
1489428116.0482618809,1489428116.0510380268, -1.1377, -0.0002, -0.0515, -0.8087, -2.5482, -5.0354
1489428116.0511100292,1489428116.0533978939, -1.1377, -0.0002, -0.0515, -0.8087, -2.5482, -5.0354
1489428116.0534689426,1489428116.0557470322, -1.1377, -0.0002, -0.0515, -1.9684, -1.8616, -4.9286
1489428116.0558149815,1489428116.0580930710, -1.1377, -0.0002, -0.0515, -1.9684, -1.8616, -4.9286
1489428116.0581619740,1489428116.0604419708, -1.1377, -0.0002, -0.0515, -1.9684, -1.8616, -4.9286
1489428116.0605111122,1489428116.0628950596, -1.1418,  0.0034, -0.0466, -1.9684, -1.8616, -4.9286
1489428116.0629649162,1489428116.0652470589, -1.1418,  0.0034, -0.0466, -1.9684, -1.8616, -4.9286
1489428116.0653169155,1489428116.0676050186, -1.1418,  0.0034, -0.0466, -2.0752, -2.0294, -4.9286
1489428116.0676751137,1489428116.0699620247, -1.1418,  0.0034, -0.0466, -2.0752, -2.0294, -4.9286
1489428116.0700318813,1489428116.0724160671, -1.1418,  0.0034, -0.0466, -2.0752, -2.0294, -4.9286
1489428116.0724859238,1489428116.0748949051, -1.1418,  0.0034, -0.0466, -2.0752, -2.0294, -4.9286
1489428116.0749650002,1489428116.0773749352, -1.1418,  0.0034, -0.0466, -2.9907, -2.1667, -5.1727
1489428116.0774440765,1489428116.0798609257, -1.1418,  0.0034, -0.0466, -2.9907, -2.1667, -5.1727
1489428116.0799300671,1489428116.0822811127, -1.1418, -0.0164, -0.0605, -2.9907, -2.1667, -5.1727
1489428116.0823509693,1489428116.0846340656, -1.1418, -0.0164, -0.0605, -2.9907, -2.1667, -5.1727
1489428116.0847029686,1489428116.0869929790, -1.1418, -0.0164, -0.0605, -3.7842, -2.4414, -5.7373
1489428116.0870618820,1489428116.0893440247, -1.1418, -0.0164, -0.0605, -3.7842, -2.4414, -5.7373
1489428116.0894129276,1489428116.0918700695, -1.1418, -0.0164, -0.0605, -3.7842, -2.4414, -5.7373
1489428116.0919389725,1489428116.0942211151, -1.1418, -0.0164, -0.0605, -3.7842, -2.4414, -5.7373
1489428116.0942900181,1489428116.0965700150, -1.1418, -0.0164, -0.0605, -3.7842, -2.4414, -5.7373
1489428116.0966389179,1489428116.0989279747, -1.1418, -0.0164, -0.0605, -3.4180, -2.3804, -5.0354
1489428116.0989980698,1489428116.1014590263, -1.1418, -0.0149, -0.0347, -3.4180, -2.3804, -5.0354
1489428116.1015288830,1489428116.1039218903, -1.1377, -0.0149, -0.0347, -3.4180, -2.3804, -5.0354
1489428116.1039919853,1489428116.1063868999, -1.1377, -0.0149, -0.0347, -3.4180, -2.3804, -5.0354
1489428116.1064560413,1489428116.1088509560, -1.1377, -0.0149, -0.0347, -3.9520, -2.0447, -4.3945
1489428116.1089200974,1489428116.1113429070, -1.1377, -0.0149, -0.0347, -3.9520, -2.0447, -4.3945
1489428116.1114130020,1489428116.1136989594, -1.1377, -0.0149, -0.0347, -3.9520, -2.0447, -4.3945
1489428116.1137681007,1489428116.1160490513, -1.1377, -0.0149, -0.0347, -3.9520, -2.0447, -4.3945
1489428116.1161179543,1489428116.1184079647, -1.1377, -0.0149, -0.0347, -3.9520, -1.5564, -3.6469
1489428116.1184780598,1489428116.1207621098, -1.1377, -0.0149, -0.0347, -3.8300, -1.5564, -3.6469
1489428116.1208310127,1489428116.1234190464, -1.1365, -0.0164, -0.0347, -3.8300, -1.5564, -3.6469
1489428116.1234960556,1489428116.1258909702, -1.1365, -0.0164, -0.0347, -3.8300, -1.5564, -3.6469
1489428116.1259610653,1489428116.1283569336, -1.1365, -0.0164, -0.0347, -3.8300, -1.5564, -3.6469
1489428116.1284270287,1489428116.1308159828, -1.1365, -0.0164, -0.0347, -4.7607, -1.2207, -3.3569
1489428116.1310749054,1489428116.1334719658, -1.1365, -0.0164, -0.0347, -4.7607, -1.2207, -3.3569
1489428116.1335411072,1489428116.1359310150, -1.1365, -0.0164, -0.0347, -4.7607, -1.2207, -3.3569
1489428116.1360011101,1489428116.1384000778, -1.1365, -0.0164, -0.0347, -4.7607, -1.2207, -3.3569
1489428116.1384689808,1489428116.1408588886, -1.1365, -0.0164, -0.0422, -5.2643, -0.7782, -2.9755
1489428116.1409819126,1489428116.1434121132, -1.1362, -0.0122, -0.0422, -5.2643, -0.7782, -2.9755
1489428116.1434819698,1489428116.1458830833, -1.1362, -0.0122, -0.0422, -5.2643, -0.7782, -2.9755
1489428116.1459538937,1489428116.1483469009, -1.1362, -0.0122, -0.0422, -5.2643, -0.7782, -2.9755
1489428116.1484169960,1489428116.1508738995, -1.1362, -0.0122, -0.0422, -5.5847, -0.9766, -2.5330
1489428116.1509981155,1489428116.1534318924, -1.1362, -0.0122, -0.0422, -5.5847, -0.9766, -2.5330
1489428116.1535029411,1489428116.1559090614, -1.1362, -0.0122, -0.0422, -5.5847, -0.9766, -2.5330
1489428116.1559789181,1489428116.1584630013, -1.1362, -0.0122, -0.0422, -5.5847, -0.9766, -2.5330
1489428116.1585340500,1489428116.1609399319, -1.1362, -0.0122, -0.0437, -5.5847, -0.9766, -2.5940
1489428116.1610109806,1489428116.1638960838, -1.1340, -0.0088, -0.0437, -5.5389, -0.9766, -2.5940
1489428116.1639709473,1489428116.1663739681, -1.1340, -0.0088, -0.0437, -5.5389, -0.9766, -2.5940
1489428116.1664459705,1489428116.1688508987, -1.1340, -0.0088, -0.0437, -5.5389, -0.9766, -2.5940
1489428116.1689229012,1489428116.1713318825, -1.1340, -0.0088, -0.0437, -5.5389, -0.6866, -2.8076
1489428116.1714038849,1489428116.1736869812, -1.1340, -0.0088, -0.0437, -5.5237, -0.6866, -2.8076
1489428116.1737580299,1489428116.1760439873, -1.1340, -0.0088, -0.0437, -5.5237, -0.6866, -2.8076
1489428116.1761150360,1489428116.1783990860, -1.1340, -0.0088, -0.0437, -5.5237, -0.6866, -2.8076
1489428116.1784710884,1489428116.1807520390, -1.1340, -0.0088, -0.0579, -5.5237, -0.6866, -2.8076
1489428116.1808240414,1489428116.1832320690, -1.1396, -0.0093, -0.0579, -5.3711, -0.4425, -2.8687
1489428116.1833040714,1489428116.1857020855, -1.1396, -0.0093, -0.0579, -5.3711, -0.4425, -2.8687
1489428116.1857740879,1489428116.1881771088, -1.1396, -0.0093, -0.0579, -5.3711, -0.4425, -2.8687
1489428116.1882491112,1489428116.1906609535, -1.1396, -0.0093, -0.0579, -5.3711, -0.4425, -2.8687
1489428116.1907320023,1489428116.1930339336, -1.1396, -0.0093, -0.0579, -5.1422, -0.4578, -3.0518
1489428116.1931049824,1489428116.1953930855, -1.1396, -0.0093, -0.0579, -5.1422, -0.4578, -3.0518
1489428116.1954650879,1489428116.1977519989, -1.1396, -0.0093, -0.0579, -5.1422, -0.4578, -3.0518
1489428116.1978230476,1489428116.2001049519, -1.1396, -0.0093, -0.0579, -5.1422, -0.4578, -3.0518
1489428116.2001769543,1489428116.2025299072, -1.1404, -0.0029, -0.0474, -5.1422, -0.4578, -3.1281
1489428116.2026009560,1489428116.2048780918, -1.1404, -0.0029, -0.0474, -5.2490, -0.3510, -3.1281
1489428116.2049500942,1489428116.2072319984, -1.1404, -0.0029, -0.0474, -5.2490, -0.3510, -3.1281
1489428116.2073040009,1489428116.2095930576, -1.1404, -0.0029, -0.0474, -5.2490, -0.3510, -3.1281
1489428116.2096641064,1489428116.2120630741, -1.1404, -0.0029, -0.0474, -5.2490, -0.3510, -3.1281
1489428116.2121338844,1489428116.2144219875, -1.1404, -0.0029, -0.0474, -5.2948, -0.4883, -3.3569
1489428116.2144920826,1489428116.2167730331, -1.1404, -0.0029, -0.0474, -5.2948, -0.4883, -3.3569
1489428116.2168428898,1489428116.2191259861, -1.1404, -0.0029, -0.0474, -5.2948, -0.4883, -3.3569
1489428116.2191960812,1489428116.2217009068, -1.1404, -0.0056, -0.0466, -5.2948, -0.4883, -3.3569
1489428116.2217729092,1489428116.2241790295, -1.1404, -0.0056, -0.0466, -5.2948, -0.8392, -3.5706
1489428116.2242510319,1489428116.2266559601, -1.1404, -0.0056, -0.0466, -5.7068, -0.8392, -3.5706
1489428116.2267279625,1489428116.2291369438, -1.1404, -0.0056, -0.0466, -5.7068, -0.8392, -3.5706
1489428116.2292079926,1489428116.2316200733, -1.1404, -0.0056, -0.0466, -5.7068, -0.8392, -3.5706
1489428116.2318150997,1489428116.2342250347, -1.1404, -0.0056, -0.0466, -5.7068, -0.8392, -3.6316
1489428116.2342948914,1489428116.2366979122, -1.1404, -0.0056, -0.0466, -5.9357, -1.3580, -3.6316
1489428116.2367680073,1489428116.2391710281, -1.1404, -0.0056, -0.0466, -5.9357, -1.3580, -3.6316
1489428116.2392408848,1489428116.2416551113, -1.1404, -0.0093, -0.0525, -5.9357, -1.3580, -3.6316
1489428116.2417249680,1489428116.2441279888, -1.1431, -0.0093, -0.0525, -5.9357, -1.3580, -3.6316
1489428116.2441980839,1489428116.2466011047, -1.1431, -0.0093, -0.0525, -5.5695, -1.2054, -3.8910
1489428116.2466709614,1489428116.2490808964, -1.1431, -0.0093, -0.0525, -5.5695, -1.2054, -3.8910
1489428116.2491519451,1489428116.2515408993, -1.1431, -0.0093, -0.0525, -5.5695, -1.2054, -3.8910
1489428116.2516109943,1489428116.2538990974, -1.1431, -0.0093, -0.0525, -5.5695, -1.2054, -3.8910
1489428116.2539680004,1489428116.2562460899, -1.1431, -0.0093, -0.0525, -5.5695, -1.1749, -4.1046
1489428116.2563159466,1489428116.2585940361, -1.1431, -0.0093, -0.0525, -5.5695, -1.1749, -4.1046
1489428116.2586638927,1489428116.2610020638, -1.1431, -0.0093, -0.0544, -5.5695, -1.1749, -4.1046
1489428116.2610731125,1489428116.2633559704, -1.1462, -0.0068, -0.0544, -5.5695, -1.1749, -4.1046
1489428116.2634260654,1489428116.2657079697, -1.1462, -0.0068, -0.0544, -5.5695, -1.1749, -0.1984
1489428116.2657780647,1489428116.2680580616, -1.1462, -0.0068, -0.0544, -5.9357, -1.4343, -3.8605
1489428116.2681269646,1489428116.2704069614, -1.1462, -0.0068, -0.0544, -5.9357, -1.4343, -3.8605
1489428116.2704761028,1489428116.2729210854, -1.1462, -0.0068, -0.0544, -5.9357, -1.4343, -3.8605
1489428116.2729909420,1489428116.2753579617, -1.1462, -0.0068, -0.0544, -5.9357, -1.4343, -3.8605
1489428116.2754280567,1489428116.2778630257, -1.1462, -0.0068, -0.0544, -5.7068, -1.0834, -4.0588
1489428116.2779340744,1489428116.2803390026, -1.1462, -0.0068, -0.0544, -5.7068, -1.0834, -4.0588
1489428116.2804079056,1489428116.2828330994, -1.1467, -0.0012, -0.0498, -5.7068, -1.0834, -4.0588
1489428116.2829029560,1489428116.2853100300, -1.1467, -0.0012, -0.0498, -5.7068, -1.0834, -4.0588
1489428116.2853810787,1489428116.2877879143, -1.1467, -0.0012, -0.0498, -5.7068, -1.4496, -4.4403
1489428116.2878580093,1489428116.2902600765, -1.1467, -0.0012, -0.0498, -4.9896, -1.4496, -4.4403
1489428116.2903308868,1489428116.2927510738, -1.1467, -0.0012, -0.0498, -4.9896, -1.4496, -4.4403
1489428116.2928199768,1489428116.2952198982, -1.1467, -0.0012, -0.0498, -4.9896, -1.4496, -4.4403
1489428116.2952899933,1489428116.2976939678, -1.1467, -0.0012, -0.0498, -4.9896, -1.4496, -5.1270
1489428116.2977640629,1489428116.3001720905, -1.1467, -0.0012, -0.0498, -5.4321, -1.1597, -5.1270
1489428116.3002419472,1489428116.3025739193, -1.1372, -0.0034, -0.0571, -5.4321, -1.1597, -5.1270
1489428116.3026449680,1489428116.3049259186, -1.1372, -0.0034, -0.0571, -5.4321, -1.1597, -5.1270
1489428116.3049960136,1489428116.3072791100, -1.1372, -0.0034, -0.0571, -5.4321, -1.1597, -5.1270
1489428116.3073480129,1489428116.3096270561, -1.1372, -0.0034, -0.0571, -5.3864, -1.3580, -5.4626
1489428116.3096959591,1489428116.3120079041, -1.1372, -0.0034, -0.0571, -5.3864, -1.3580, -5.4626
1489428116.3120779991,1489428116.3143610954, -1.1372, -0.0034, -0.0571, -5.3864, -1.3580, -5.4626
1489428116.3144299984,1489428116.3167119026, -1.1372, -0.0034, -0.0571, -5.3864, -1.3580, -5.4626
1489428116.3167819977,1489428116.3190650940, -1.1372, -0.0034, -0.0571, -5.3864, -1.3580, -5.5542
1489428116.3191339970,1489428116.3215448856, -1.1372, -0.0071, -0.0522, -5.3101, -1.3580, -5.5542
1489428116.3216149807,1489428116.3238999844, -1.1394, -0.0071, -0.0522, -5.3101, -1.3580, -5.5542
1489428116.3239700794,1489428116.3262500763, -1.1394, -0.0071, -0.0522, -5.3101, -1.3580, -5.5542
1489428116.3263199329,1489428116.3285980225, -1.1394, -0.0071, -0.0522, -5.3101, -1.3580, -5.5542
1489428116.3286669254,1489428116.3310830593, -1.1394, -0.0071, -0.0522, -5.5237, -1.3885, -5.4321
1489428116.3311519623,1489428116.3335649967, -1.1394, -0.0071, -0.0522, -5.5237, -1.3885, -5.4321
1489428116.3337531090,1489428116.3361659050, -1.1394, -0.0071, -0.0522, -5.5237, -1.3885, -5.4321
1489428116.3362369537,1489428116.3386430740, -1.1394, -0.0071, -0.0522, -5.5237, -1.3885, -5.4321
1489428116.3387129307,1489428116.3411629200, -1.1394, -0.0071, -0.0439, -5.1422, -1.0986, -5.6000
1489428116.3412339687,1489428116.3436379433, -1.1438, -0.0125, -0.0439, -5.1422, -1.0986, -5.6000
1489428116.3437080383,1489428116.3461110592, -1.1438, -0.0125, -0.0439, -5.1422, -1.0986, -5.6000
1489428116.3461799622,1489428116.3485829830, -1.1438, -0.0125, -0.0439, -5.1422, -1.0986, -5.6000
1489428116.3486530781,1489428116.3510620594, -1.1438, -0.0125, -0.0439, -5.1422, -1.2817, -5.4016
1489428116.3511309624,1489428116.3535358906, -1.1438, -0.0125, -0.0439, -4.6844, -1.2817, -5.4016
1489428116.3536059856,1489428116.3560121059, -1.1438, -0.0125, -0.0439, -4.6844, -1.2817, -5.4016
1489428116.3560810089,1489428116.3584809303, -1.1438, -0.0125, -0.0439, -4.6844, -1.2817, -5.4016
1489428116.3585500717,1489428116.3609640598, -1.1438, -0.0125, -0.0439, -4.6844, -1.2817, -5.4016
1489428116.3610329628,1489428116.3634350300, -1.1375, -0.0122, -0.0503, -4.6692, -1.4191, -5.2032
1489428116.3635048866,1489428116.3659119606, -1.1375, -0.0122, -0.0503, -4.6692, -1.4191, -5.2032
1489428116.3659820557,1489428116.3683888912, -1.1375, -0.0122, -0.0503, -4.6692, -1.4191, -5.2032
1489428116.3684580326,1489428116.3708610535, -1.1375, -0.0122, -0.0503, -4.6692, -1.4191, -5.2032
1489428116.3709790707,1489428116.3733859062, -1.1375, -0.0122, -0.0503, -4.1504, -1.5106, -5.1727
1489428116.3734560013,1489428116.3758549690, -1.1375, -0.0122, -0.0503, -4.1504, -1.5106, -5.1727
1489428116.3759250641,1489428116.3783299923, -1.1375, -0.0122, -0.0503, -4.1504, -1.5106, -5.1727
1489428116.3783988953,1489428116.3808009624, -1.1375, -0.0122, -0.0503, -4.1504, -1.5106, -5.1727
1489428116.3808710575,1489428116.3832759857, -1.1423, -0.0115, -0.0422, -4.5929, -1.4648, -5.0049
1489428116.3833460808,1489428116.3857519627, -1.1423, -0.0115, -0.0422, -4.5929, -1.4648, -5.0049
1489428116.3858211040,1489428116.3882269859, -1.1423, -0.0115, -0.0422, -4.5929, -1.4648, -5.0049
1489428116.3882958889,1489428116.3907070160, -1.1423, -0.0115, -0.0422, -4.5929, -1.4648, -5.0049
1489428116.3907759190,1489428116.3931870461, -1.1423, -0.0115, -0.0422, -4.5929, -1.4648, -5.3406
1489428116.3932569027,1489428116.3956570625, -1.1423, -0.0115, -0.0422, -4.7607, -1.0529, -5.3406
1489428116.3957259655,1489428116.3981359005, -1.1423, -0.0115, -0.0422, -4.7607, -1.0529, -5.3406
1489428116.3982059956,1489428116.4006109238, -1.1423, -0.0115, -0.0422, -4.7607, -1.0529, -5.3406
1489428116.4006810188,1489428116.4031679630, -1.1426, -0.0105, -0.0408, -4.7607, -1.0529, -5.3406
1489428116.4032380581,1489428116.4056510925, -1.1426, -0.0105, -0.0408, -4.5624, -1.4191, -5.1880
1489428116.4057199955,1489428116.4081299305, -1.1426, -0.0105, -0.0408, -4.5624, -1.4191, -5.1880
1489428116.4081990719,1489428116.4106109142, -1.1426, -0.0105, -0.0408, -4.5624, -1.4191, -5.1880
1489428116.4106810093,1489428116.4130349159, -1.1426, -0.0105, -0.0408, -4.5624, -1.4191, -5.1880
1489428116.4131040573,1489428116.4153869152, -1.1426, -0.0105, -0.0408, -4.3335, -1.2207, -5.1880
1489428116.4154560566,1489428116.4177379608, -1.1426, -0.0105, -0.0408, -4.3335, -1.2207, -5.1880
1489428116.4178071022,1489428116.4200909138, -1.1426, -0.0105, -0.0408, -4.3335, -1.2207, -5.1880
1489428116.4201610088,1489428116.4225020409, -1.1362, -0.0203, -0.0552, -4.3335, -1.2207, -5.1880
1489428116.4225709438,1489428116.4248518944, -1.1362, -0.0203, -0.0552, -4.3335, -1.2207, -4.9591
1489428116.4249200821,1489428116.4271988869, -1.1362, -0.0203, -0.0552, -4.4861, -1.1902, -4.9591
1489428116.4272680283,1489428116.4295520782, -1.1362, -0.0203, -0.0552, -4.4861, -1.1902, -4.9591
1489428116.4296200275,1489428116.4319899082, -1.1362, -0.0203, -0.0552, -4.4861, -1.1902, -4.9591
1489428116.4320609570,1489428116.4344649315, -1.1362, -0.0203, -0.0552, -4.4861, -1.1902, -4.9591
1489428116.4345340729,1489428116.4369370937, -1.1362, -0.0203, -0.0552, -3.9978, -1.0529, -4.5776
1489428116.4371130466,1489428116.4395229816, -1.1362, -0.0203, -0.0552, -3.9978, -1.0529, -4.5776
1489428116.4395918846,1489428116.4420130253, -1.1394, -0.0161, -0.0381, -3.9978, -1.0529, -4.5776
1489428116.4420828819,1489428116.4444880486, -1.1394, -0.0161, -0.0381, -3.9978, -1.0529, -4.5776
1489428116.4445569515,1489428116.4469630718, -1.1394, -0.0161, -0.0381, -3.9215, -0.7629, -4.3182
1489428116.4470329285,1489428116.4494409561, -1.1394, -0.0161, -0.0381, -3.9215, -0.7629, -4.3182
1489428116.4495120049,1489428116.4519639015, -1.1394, -0.0161, -0.0381, -3.9215, -0.7629, -4.3182
1489428116.4520349503,1489428116.4544420242, -1.1394, -0.0161, -0.0381, -3.9215, -0.7629, -4.3182
1489428116.4545118809,1489428116.4569249153, -1.1394, -0.0161, -0.0381, -0.0153, -1.0529, -3.9673
1489428116.4569950104,1489428116.4594030380, -1.1394, -0.0161, -0.0381, -3.4332, -1.0529, -3.9673
1489428116.4594719410,1489428116.4618339539, -1.1394, -0.0137, -0.0454, -3.4332, -1.0529, -3.9673
1489428116.4619040489,1489428116.4641890526, -1.1387, -0.0137, -0.0454, -3.4332, -1.0529, -3.9673
1489428116.4642570019,1489428116.4665400982, -1.1387, -0.0137, -0.0454, -3.4332, -1.0529, -0.0610
1489428116.4666099548,1489428116.4688930511, -1.1387, -0.0137, -0.0454, -3.9978, -1.4954, -3.6011
1489428116.4689619541,1489428116.4712729454, -1.1387, -0.0137, -0.0454, -3.9978, -1.4954, -3.6011
1489428116.4713420868,1489428116.4737529755, -1.1387, -0.0137, -0.0454, -3.9978, -1.4954, -3.6011
1489428116.4738221169,1489428116.4762299061, -1.1387, -0.0137, -0.0454, -3.9978, -1.4954, -3.6011
1489428116.4762990475,1489428116.4787070751, -1.1387, -0.0137, -0.0454, -3.6011, -1.6327, -4.1809
1489428116.4787759781,1489428116.4811909199, -1.1387, -0.0137, -0.0393, -3.6011, -1.6327, -4.1809
1489428116.4812600613,1489428116.4836668968, -1.1396, -0.0078, -0.0393, -3.6011, -1.6327, -4.1809
1489428116.4837369919,1489428116.4861440659, -1.1396, -0.0078, -0.0393, -3.6011, -1.6327, -4.1809
1489428116.4862139225,1489428116.4886159897, -1.1396, -0.0078, -0.0393, -3.6011, -1.8158, -4.0283
1489428116.4886870384,1489428116.4911410809, -1.1396, -0.0078, -0.0393, -3.5858, -1.8158, -4.0283
1489428116.4912109375,1489428116.4936180115, -1.1396, -0.0078, -0.0393, -3.5858, -1.8158, -4.0283
1489428116.4936881065,1489428116.4960930347, -1.1396, -0.0078, -0.0393, -3.5858, -1.8158, -4.0283
1489428116.4961619377,1489428116.4985699654, -1.1396, -0.0078, -0.0393, -3.5858, -1.8158, -4.3182
1489428116.4986391068,1489428116.5010499954, -1.1396, -0.0078, -0.0393, -3.5706, -1.6327, -4.3182
1489428116.5011200905,1489428116.5035250187, -1.1387, -0.0117, -0.0518, -3.5706, -1.6327, -4.3182
1489428116.5035951138,1489428116.5059969425, -1.1387, -0.0117, -0.0518, -3.5706, -1.6327, -4.3182
1489428116.5060670376,1489428116.5084691048, -1.1387, -0.0117, -0.0518, -3.5706, -1.6327, -4.3182
1489428116.5085389614,1489428116.5109539032, -1.1387, -0.0117, -0.0518, -3.2043, -1.5106, -4.5013
1489428116.5110230446,1489428116.5133030415, -1.1387, -0.0117, -0.0518, -3.2043, -1.5106, -4.5013
1489428116.5133728981,1489428116.5156559944, -1.1387, -0.0117, -0.0518, -3.2043, -1.5106, -4.5013
1489428116.5157248974,1489428116.5180089474, -1.1387, -0.0117, -0.0518, -3.2043, -1.5106, -4.5013
1489428116.5180780888,1489428116.5203549862, -1.1387, -0.0117, -0.0518, -3.0212, -1.7700, -3.9520
1489428116.5204238892,1489428116.5228240490, -1.1365, -0.0217, -0.0339, -3.0212, -1.7700, -3.9520
1489428116.5228939056,1489428116.5252981186, -1.1365, -0.0217, -0.0339, -3.0212, -1.7700, -3.9520
1489428116.5253670216,1489428116.5277779102, -1.1365, -0.0217, -0.0339, -3.0212, -1.7700, -3.9520
1489428116.5278470516,1489428116.5302529335, -1.1365, -0.0217, -0.0339, -3.0212, -1.7700, -3.4180
1489428116.5303220749,1489428116.5327379704, -1.1365, -0.0217, -0.0339, -3.1586, -1.9379, -3.4180
1489428116.5328071117,1489428116.5352160931, -1.1365, -0.0217, -0.0339, -3.1586, -1.9379, -3.4180
1489428116.5352859497,1489428116.5376930237, -1.1365, -0.0217, -0.0339, -3.1586, -1.9379, -3.4180
1489428116.5377619267,1489428116.5401659012, -1.1365, -0.0217, -0.0339, -3.1586, -1.9379, -3.4180
1489428116.5403420925,1489428116.5427660942, -1.1379, -0.0210, -0.0317, -3.7384, -1.5259, -3.1891
1489428116.5428349972,1489428116.5452411175, -1.1379, -0.0210, -0.0317, -3.7384, -1.5259, -3.1891
1489428116.5453109741,1489428116.5477170944, -1.1379, -0.0210, -0.0317, -3.7384, -1.5259, -3.1891
1489428116.5477850437,1489428116.5501899719, -1.1379, -0.0210, -0.0317, -3.7384, -1.5259, -3.1891
1489428116.5502591133,1489428116.5526809692, -1.1379, -0.0210, -0.0317, -3.6011, -1.3275, -3.2043
1489428116.5527501106,1489428116.5551550388, -1.1379, -0.0210, -0.0317, -3.6011, -1.3275, -3.2043
1489428116.5552239418,1489428116.5576291084, -1.1379, -0.0210, -0.0317, -3.6011, -1.3275, -3.2043
1489428116.5576980114,1489428116.5601029396, -1.1379, -0.0210, -0.0317, -3.6011, -1.3275, -3.2043
1489428116.5601720810,1489428116.5625059605, -1.1367, -0.0125, -0.0439, -7.5073, -1.8463, -3.1586
1489428116.5625760555,1489428116.5648570061, -1.1367, -0.0125, -0.0439, -4.3488, -1.8463, -3.1586
1489428116.5649259090,1489428116.5672109127, -1.1367, -0.0125, -0.0439, -4.3488, -1.8463, -3.1586
1489428116.5672791004,1489428116.5695610046, -1.1367, -0.0125, -0.0439, -4.3488, -1.8463, -3.1586
1489428116.5696299076,1489428116.5719280243, -1.1367, -0.0125, -0.0439, -4.3488, -1.8463, -3.1586
1489428116.5719969273,1489428116.5742709637, -1.1367, -0.0125, -0.0439, -4.3182, -1.7700, -3.3417
1489428116.5743389130,1489428116.5766160488, -1.1367, -0.0125, -0.0439, -4.3182, -1.7700, -3.3417
1489428116.5766849518,1489428116.5789599419, -1.1367, -0.0125, -0.0439, -4.3182, -1.7700, -3.3417
1489428116.5790290833,1489428116.5813729763, -1.1367, -0.0125, -0.0386, -4.3182, -1.7700, -3.3417
1489428116.5814430714,1489428116.5838499069, -1.1387, -0.0012, -0.0386, -4.1656, -1.5717, -3.6011
1489428116.5839190483,1489428116.5863249302, -1.1387, -0.0012, -0.0386, -4.1656, -1.5717, -3.6011
1489428116.5863950253,1489428116.5887959003, -1.1387, -0.0012, -0.0386, -4.1656, -1.5717, -3.6011
1489428116.5888669491,1489428116.5912709236, -1.1387, -0.0012, -0.0386, -4.1656, -1.5717, -3.6011
1489428116.5913410187,1489428116.5937440395, -1.1387, -0.0012, -0.0386, -4.1656, -1.5717, -4.1504
1489428116.5938138962,1489428116.5962219238, -1.1387, -0.0012, -0.0386, -4.8218, -1.5411, -4.1504
1489428116.5962920189,1489428116.5986969471, -1.1387, -0.0012, -0.0386, -4.8218, -1.5411, -4.1504
1489428116.5987670422,1489428116.6011838913, -1.1387, -0.0012, -0.0386, -4.8218, -1.5411, -4.1504
1489428116.6012539864,1489428116.6036550999, -1.1396, -0.0139, -0.0352, -4.8218, -1.5411, -4.1504
1489428116.6037240028,1489428116.6061289310, -1.1396, -0.0139, -0.0352, -5.1727, -1.4191, -3.8605
1489428116.6061990261,1489428116.6086061001, -1.1396, -0.0139, -0.0352, -5.1727, -1.4191, -3.8605
1489428116.6086750031,1489428116.6110870838, -1.1396, -0.0139, -0.0352, -5.1727, -1.4191, -3.8605
1489428116.6111559868,1489428116.6135580540, -1.1396, -0.0139, -0.0352, -5.1727, -1.4191, -3.8605
1489428116.6136269569,1489428116.6160330772, -1.1396, -0.0139, -0.0352, -4.2572, -1.8616, -3.7384
1489428116.6161019802,1489428116.6185059547, -1.1396, -0.0139, -0.0352, -4.2572, -1.8616, -3.7384
1489428116.6185750961,1489428116.6209909916, -1.1396, -0.0139, -0.0352, -4.2572, -1.8616, -3.7384
1489428116.6210598946,1489428116.6233410835, -1.1516, -0.0081, -0.0581, -4.2572, -1.8616, -3.7384
1489428116.6234099865,1489428116.6256918907, -1.1516, -0.0081, -0.0581, -4.2572, -1.7548, -3.7842
1489428116.6257610321,1489428116.6280379295, -1.1516, -0.0081, -0.0581, -3.8147, -1.7548, -3.7842
1489428116.6281080246,1489428116.6303830147, -1.1516, -0.0081, -0.0581, -3.8147, -1.7548, -3.7842
1489428116.6304531097,1489428116.6328449249, -1.1516, -0.0081, -0.0581, -3.8147, -1.7548, -3.7842
1489428116.6329140663,1489428116.6353230476, -1.1516, -0.0081, -0.0581, -3.8147, -1.7548, -3.7842
1489428116.6353929043,1489428116.6377949715, -1.1516, -0.0081, -0.0581, -4.3182, -1.9989, -3.7537
1489428116.6378660202,1489428116.6402709484, -1.1516, -0.0081, -0.0581, -4.3182, -1.9989, -3.7537
1489428116.6404390335,1489428116.6428530216, -1.1433, -0.0127, -0.0481, -4.3182, -1.9989, -3.7537
1489428116.6429231167,1489428116.6453349590, -1.1433, -0.0127, -0.0481, -4.3182, -1.9989, -3.7537
1489428116.6454041004,1489428116.6478009224, -1.1433, -0.0127, -0.0481, -3.0060, -2.1667, -4.2419
1489428116.6478710175,1489428116.6502790451, -1.1433, -0.0127, -0.0481, -3.0060, -2.1667, -4.2419
1489428116.6503489017,1489428116.6527819633, -1.1433, -0.0127, -0.0481, -3.0060, -2.1667, -4.2419
1489428116.6528511047,1489428116.6552500725, -1.1433, -0.0127, -0.0481, -3.0060, -2.1667, -4.2419
1489428116.6553199291,1489428116.6577260494, -1.1433, -0.0127, -0.0481, -3.0060, -2.0752, -4.4098
1489428116.6577949524,1489428116.6602039337, -1.1433, -0.0127, -0.0481, -3.2654, -2.0752, -4.4098
1489428116.6602730751,1489428116.6626949310, -1.1353, -0.0095, -0.0388, -3.2654, -2.0752, -4.4098
1489428116.6627650261,1489428116.6651730537, -1.1353, -0.0095, -0.0388, -3.2654, -2.0752, -4.4098
1489428116.6652441025,1489428116.6676518917, -1.1353, -0.0095, -0.0388, -3.2654, -2.0752, -4.1504
1489428116.6677219868,1489428116.6701281071, -1.1353, -0.0095, -0.0388, -3.7842, -1.8311, -4.1504
1489428116.6701989174,1489428116.6725349426, -1.1353, -0.0095, -0.0388, -3.7842, -1.8311, -4.1504
1489428116.6726059914,1489428116.6748909950, -1.1353, -0.0095, -0.0388, -3.7842, -1.8311, -4.1504
1489428116.6749610901,1489428116.6772449017, -1.1353, -0.0095, -0.0388, -3.7842, -1.8311, -4.1504
1489428116.6773149967,1489428116.6795949936, -1.1353, -0.0095, -0.0388, -3.0823, -1.9836, -4.4098
1489428116.6796638966,1489428116.6819560528, -1.1353, -0.0125, -0.0364, -3.0823, -1.9836, -4.4098
1489428116.6820240021,1489428116.6843059063, -1.1423, -0.0125, -0.0364, -3.0823, -1.9836, -4.4098
1489428116.6843750477,1489428116.6866528988, -1.1423, -0.0125, -0.0364, -3.0823, -1.9836, -4.4098
1489428116.6867220402,1489428116.6890020370, -1.1423, -0.0125, -0.0364, -3.0823, -1.9836, -4.4708
1489428116.6890699863,1489428116.6913869381, -1.1423, -0.0125, -0.0364, -3.1891, -2.2125, -4.4708
1489428116.6914570332,1489428116.6938579082, -1.1423, -0.0125, -0.0364, -3.1891, -2.2125, -4.4708
1489428116.6939280033,1489428116.6963338852, -1.1423, -0.0125, -0.0364, -3.1891, -2.2125, -4.4708
1489428116.6964030266,1489428116.6988089085, -1.1423, -0.0125, -0.0364, -3.1891, -2.2125, -4.4708
1489428116.6988780499,1489428116.7012701035, -1.1423, -0.0125, -0.0364, -3.3417, -2.0294, -4.0894
1489428116.7013399601,1489428116.7036221027, -1.1418, -0.0176, -0.0293, -3.3417, -2.0294, -4.0894
1489428116.7036919594,1489428116.7059719563, -1.1418, -0.0176, -0.0293, -3.3417, -2.0294, -4.0894
1489428116.7060410976,1489428116.7083189487, -1.1418, -0.0176, -0.0293, -3.3417, -2.0294, -4.0894
1489428116.7083880901,1489428116.7106640339, -1.1418, -0.0176, -0.0293, -3.3569, -2.1057, -3.9825
1489428116.7107329369,1489428116.7131829262, -1.1418, -0.0176, -0.0293, -3.3569, -2.1057, -3.9825
1489428116.7132520676,1489428116.7156538963, -1.1418, -0.0176, -0.0293, -3.3569, -2.1057, -3.9825
1489428116.7157230377,1489428116.7181301117, -1.1418, -0.0176, -0.0293, -3.3569, -2.1057, -3.9825
1489428116.7181990147,1489428116.7205948830, -1.1418, -0.0176, -0.0293, -3.3569, -2.1057, -4.3945
1489428116.7206640244,1489428116.7230699062, -1.1355, -0.0134, -0.0432, -2.9755, -2.4719, -4.3945
1489428116.7231390476,1489428116.7255399227, -1.1355, -0.0134, -0.0432, -2.9755, -2.4719, -4.3945
1489428116.7256081104,1489428116.7280139923, -1.1355, -0.0134, -0.0432, -2.9755, -2.4719, -4.3945
1489428116.7280828953,1489428116.7304880619, -1.1355, -0.0134, -0.0432, -2.9755, -2.4719, -4.3945
1489428116.7305569649,1489428116.7328739166, -1.1355, -0.0134, -0.0432, -3.1281, -2.0142, -4.2572
1489428116.7329430580,1489428116.7352271080, -1.1355, -0.0134, -0.0432, -3.1281, -2.0142, -4.2572
1489428116.7352950573,1489428116.7375769615, -1.1355, -0.0134, -0.0432, -3.1281, -2.0142, -4.2572
1489428116.7376470566,1489428116.7399260998, -1.1355, -0.0134, -0.0432, -3.1281, -2.0142, -4.2572
1489428116.7399950027,1489428116.7423889637, -1.1450, -0.0129, -0.0459, -3.4790, -2.2583, -4.1962
1489428116.7425711155,1489428116.7449820042, -1.1450, -0.0129, -0.0459, -3.4790, -2.2583, -4.1962
1489428116.7450509071,1489428116.7474560738, -1.1450, -0.0129, -0.0459, -3.4790, -2.2583, -4.1962
1489428116.7475249767,1489428116.7499320507, -1.1450, -0.0129, -0.0459, -3.4790, -2.2583, -4.1962
1489428116.7500009537,1489428116.7524158955, -1.1450, -0.0129, -0.0459, -3.4790, -2.2583, -4.5013
1489428116.7524859905,1489428116.7548890114, -1.1450, -0.0129, -0.0459, -3.7231, -2.0142, -4.5013
1489428116.7549591064,1489428116.7573630810, -1.1450, -0.0129, -0.0459, -3.7231, -2.0142, -4.5013
1489428116.7574329376,1489428116.7598440647, -1.1450, -0.0129, -0.0459, -3.7231, -2.0142, -4.5013
1489428116.7599129677,1489428116.7623610497, -1.1450, -0.0181, -0.0308, -3.7231, -2.0142, -4.5013
1489428116.7624309063,1489428116.7648398876, -1.1362, -0.0181, -0.0308, -3.2043, -2.2888, -4.2572
1489428116.7649099827,1489428116.7673161030, -1.1362, -0.0181, -0.0308, -3.2043, -2.2888, -4.2572
1489428116.7673859596,1489428116.7697939873, -1.1362, -0.0181, -0.0308, -3.2043, -2.2888, -4.2572
1489428116.7698640823,1489428116.7722740173, -1.1362, -0.0181, -0.0308, -3.2043, -2.2888, -4.2572
1489428116.7723429203,1489428116.7747499943, -1.1362, -0.0181, -0.0308, -3.5400, -1.9684, -3.1738
1489428116.7748200893,1489428116.7772240639, -1.1362, -0.0181, -0.0308, -3.5400, -1.9684, -3.1738
1489428116.7772939205,1489428116.7796990871, -1.1362, -0.0181, -0.0308, -3.5400, -1.9684, -3.1738
1489428116.7797679901,1489428116.7821240425, -1.1362, -0.0146, -0.0400, -3.5400, -1.9684, -3.1738
1489428116.7821929455,1489428116.7844738960, -1.1377, -0.0146, -0.0400, -3.5400, -1.9073, -3.4485
1489428116.7845430374,1489428116.7868289948, -1.1377, -0.0146, -0.0400, -3.8605, -1.9073, -3.4485
1489428116.7868969440,1489428116.7891800404, -1.1377, -0.0146, -0.0400, -3.8605, -1.9073, -3.4485
1489428116.7892498970,1489428116.7915530205, -1.1377, -0.0146, -0.0400, -3.8605, -1.9073, -3.4485
1489428116.7916219234,1489428116.7939000130, -1.1377, -0.0146, -0.0400, -3.8605, -1.9073, -3.4485
1489428116.7939689159,1489428116.7962529659, -1.1377, -0.0146, -0.0400, -3.4485, -2.1057, -3.3875
1489428116.7963221073,1489428116.7985999584, -1.1377, -0.0146, -0.0400, -3.4485, -2.1057, -3.3875
1489428116.7986690998,1489428116.8009839058, -1.1377, -0.0146, -0.0400, -3.4485, -2.1057, -3.3875
1489428116.8010530472,1489428116.8034489155, -1.1421, -0.0078, -0.0398, -3.4485, -2.1057, -3.3875
1489428116.8035199642,1489428116.8059220314, -1.1421, -0.0078, -0.0398, -3.5248, -1.7242, -3.0823
1489428116.8059918880,1489428116.8084011078, -1.1421, -0.0078, -0.0398, -3.5248, -1.7242, -3.0823
1489428116.8084709644,1489428116.8108799458, -1.1421, -0.0078, -0.0398, -3.5248, -1.7242, -3.0823
1489428116.8109989166,1489428116.8134078979, -1.1421, -0.0078, -0.0398, -3.5248, -1.7242, -3.0823
1489428116.8134779930,1489428116.8158860207, -1.1421, -0.0078, -0.0398, -3.5248, -1.7242, -3.2959
1489428116.8159561157,1489428116.8183610439, -1.1421, -0.0078, -0.0398, -4.1046, -2.1667, -3.2959
1489428116.8184309006,1489428116.8208379745, -1.1421, -0.0078, -0.0398, -4.1046, -2.1667, -3.2959
1489428116.8209741116,1489428116.8233780861, -1.1362, -0.0161, -0.0173, -4.1046, -2.1667, -3.2959
1489428116.8234469891,1489428116.8258590698, -1.1362, -0.0161, -0.0173, -4.1046, -2.1667, -3.2959
1489428116.8259279728,1489428116.8283379078, -1.1362, -0.0161, -0.0173, -3.9978, -2.4109, -3.7079
1489428116.8284060955,1489428116.8308079243, -1.1362, -0.0161, -0.0173, -3.9978, -2.4109, -3.7079
1489428116.8308770657,1489428116.8331630230, -1.1362, -0.0161, -0.0173, -3.9978, -2.4109, -3.7079
1489428116.8332309723,1489428116.8355209827, -1.1362, -0.0161, -0.0173, -3.9978, -2.4109, -3.7079
1489428116.8355889320,1489428116.8378651142, -1.1362, -0.0161, -0.0173, -3.7537, -1.9226, -3.2654
1489428116.8379330635,1489428116.8402121067, -1.1362, -0.0161, -0.0173, -3.7537, -1.9226, -3.2654
1489428116.8402800560,1489428116.8426630497, -1.1411, -0.0098, -0.0264, -3.7537, -1.9226, -3.2654
1489428116.8427329063,1489428116.8451359272, -1.1411, -0.0098, -0.0264, -3.7537, -1.9226, -3.2654
1489428116.8453149796,1489428116.8477239609, -1.1411, -0.0098, -0.0264, -3.7537, -1.7242, -2.7618
1489428116.8477931023,1489428116.8501958847, -1.1411, -0.0098, -0.0264, -4.2725, -1.7242, -2.7618
1489428116.8502659798,1489428116.8526771069, -1.1411, -0.0098, -0.0264, -4.2725, -1.7242, -2.7618
1489428116.8527469635,1489428116.8551540375, -1.1411, -0.0098, -0.0264, -4.2725, -1.7242, -2.7618
1489428116.8552229404,1489428116.8576300144, -1.1411, -0.0098, -0.0264, -4.2725, -1.7242, -2.7618
1489428116.8577001095,1489428116.8601000309, -1.1411, -0.0098, -0.0264, -3.9368, -1.8463, -3.5248
1489428116.8601698875,1489428116.8625888824, -1.1440, -0.0142, -0.0393, -3.9368, -1.8463, -3.5248
1489428116.8626580238,1489428116.8650629520, -1.1440, -0.0142, -0.0393, -3.9368, -1.8463, -3.5248
1489428116.8651330471,1489428116.8675379753, -1.1440, -0.0142, -0.0393, -3.9368, -1.8463, -3.5248
1489428116.8676080704,1489428116.8700110912, -1.1440, -0.0142, -0.0393, -4.0741, -2.2888, -3.8147
1489428116.8700809479,1489428116.8725280762, -1.1440, -0.0142, -0.0393, -4.0741, -2.2888, -3.8147
1489428116.8725969791,1489428116.8750040531, -1.1440, -0.0142, -0.0393, -4.0741, -2.2888, -3.8147
1489428116.8750729561,1489428116.8774778843, -1.1440, -0.0142, -0.0393, -4.0741, -2.2888, -3.8147
1489428116.8775470257,1489428116.8799519539, -1.1440, -0.0142, -0.0393, -3.9520, -1.9531, -3.4485
1489428116.8800210953,1489428116.8823680878, -1.1440, -0.0103, -0.0352, -3.9520, -1.9531, -3.4485
1489428116.8824379444,1489428116.8847250938, -1.1404, -0.0103, -0.0352, -3.9520, -1.9531, -3.4485
1489428116.8847930431,1489428116.8870749474, -1.1404, -0.0103, -0.0352, -3.9520, -1.9531, -3.4485
1489428116.8871440887,1489428116.8894259930, -1.1404, -0.0103, -0.0352, -3.9520, -1.9531, -3.4485
1489428116.8894948959,1489428116.8918368816, -1.1404, -0.0103, -0.0352, -3.9978, -2.4567, -3.7384
1489428116.8919060230,1489428116.8943150043, -1.1404, -0.0103, -0.0352, -3.9978, -2.4567, -3.7384
1489428116.8943850994,1489428116.8967878819, -1.1404, -0.0103, -0.0352, -3.9978, -2.4567, -3.7384
1489428116.8968579769,1489428116.8992600441, -1.1404, -0.0103, -0.0352, -3.9978, -2.4567, -3.7384
1489428116.8993289471,1489428116.9017760754, -1.1404, -0.0103, -0.0374, -3.8757, -2.2736, -3.7994
1489428116.9018459320,1489428116.9042539597, -1.1421, -0.0139, -0.0374, -3.8757, -2.2736, -3.7994
1489428116.9043240547,1489428116.9067289829, -1.1421, -0.0139, -0.0374, -3.8757, -2.2736, -3.7994
1489428116.9067978859,1489428116.9092009068, -1.1421, -0.0139, -0.0374, -3.8757, -2.2736, -3.7994
1489428116.9092710018,1489428116.9116919041, -1.1421, -0.0139, -0.0374, -3.6926, -2.3651, -3.9825
1489428116.9117610455,1489428116.9141690731, -1.1421, -0.0139, -0.0374, -3.6926, -2.3651, -3.9825
1489428116.9142379761,1489428116.9166479111, -1.1421, -0.0139, -0.0374, -3.6926, -2.3651, -3.9825
1489428116.9167170525,1489428116.9191260338, -1.1421, -0.0139, -0.0374, -3.6926, -2.3651, -3.9825
1489428116.9191949368,1489428116.9216039181, -1.1421, -0.0139, -0.0374, -3.6926, -2.3651, -3.5858
1489428116.9216730595,1489428116.9240789413, -1.1421, -0.0134, -0.0403, -3.4790, -2.6703, -3.5858
1489428116.9241490364,1489428116.9265539646, -1.1421, -0.0134, -0.0403, -3.4790, -2.6703, -3.5858
1489428116.9266231060,1489428116.9290320873, -1.1421, -0.0134, -0.0403, -3.4790, -2.6703, -3.5858
1489428116.9291000366,1489428116.9315390587, -1.1421, -0.0134, -0.0403, -3.4790, -2.6703, -3.5858
1489428116.9316079617,1489428116.9338901043, -1.1421, -0.0134, -0.0403, -3.9215, -2.2278, -3.5858
1489428116.9339590073,1489428116.9362399578, -1.1421, -0.0134, -0.0403, -3.9215, -2.2278, -3.5858
1489428116.9363090992,1489428116.9385919571, -1.1421, -0.0134, -0.0403, -3.9215, -2.2278, -3.5858
1489428116.9386610985,1489428116.9409780502, -1.1421, -0.0134, -0.0403, -3.9215, -2.2278, -3.5858
1489428116.9410469532,1489428116.9434518814, -1.1389, -0.0095, -0.0361, -3.9215, -2.3041, -3.6316
1489428116.9435219765,1489428116.9459300041, -1.1389, -0.0095, -0.0361, -3.9215, -2.3041, -3.6316
1489428116.9460000992,1489428116.9484040737, -1.1389, -0.0095, -0.0361, -3.9215, -2.3041, -3.6316
1489428116.9485778809,1489428116.9510009289, -1.1389, -0.0095, -0.0361, -3.9215, -2.3041, -3.6316
1489428116.9510729313,1489428116.9534859657, -1.1389, -0.0095, -0.0361, -3.9215, -2.2583, -3.6011
1489428116.9535570145,1489428116.9559578896, -1.1389, -0.0095, -0.0361, -3.9673, -2.2583, -3.6011
1489428116.9560279846,1489428116.9584310055, -1.1389, -0.0095, -0.0361, -3.9673, -2.2583, -3.6011
1489428116.9585011005,1489428116.9609489441, -1.1389, -0.0095, -0.0361, -3.9673, -2.2583, -3.6011
1489428116.9610199928,1489428116.9634239674, -1.1372, -0.0166, -0.0273, -3.9673, -2.2583, -7.5073
1489428116.9634940624,1489428116.9659020901, -1.1372, -0.0166, -0.0273, -3.8757, -2.7466, -4.0588
1489428116.9659719467,1489428116.9683740139, -1.1372, -0.0166, -0.0273, -3.8757, -2.7466, -4.0588
1489428116.9684429169,1489428116.9708509445, -1.1372, -0.0166, -0.0273, -3.8757, -2.7466, -4.0588
1489428116.9709711075,1489428116.9733839035, -1.1372, -0.0166, -0.0273, -3.8757, -2.7466, -4.0588
1489428116.9734539986,1489428116.9758589268, -1.1372, -0.0166, -0.0273, -3.1586, -2.1667, -3.4943
1489428116.9759271145,1489428116.9783339500, -1.1372, -0.0166, -0.0273, -3.1586, -2.1667, -3.4943
1489428116.9784030914,1489428116.9808070660, -1.1372, -0.0166, -0.0273, -3.1586, -2.1667, -3.4943
1489428116.9808769226,1489428116.9831631184, -1.1416, -0.0134, -0.0288, -3.1586, -2.1667, -3.4943
1489428116.9832320213,1489428116.9855139256, -1.1416, -0.0134, -0.0288, -3.3112, -2.3193, -3.6316
1489428116.9855821133,1489428116.9878640175, -1.1416, -0.0134, -0.0288, -3.3112, -2.3193, -3.6316
1489428116.9879319668,1489428116.9902179241, -1.1416, -0.0134, -0.0288, -3.3112, -2.3193, -3.6316
1489428116.9902870655,1489428116.9926679134, -1.1416, -0.0134, -0.0288, -3.3112, -2.3193, -3.6316
1489428116.9927370548,1489428116.9951438904, -1.1416, -0.0134, -0.0288, -3.3112, -2.3193, -3.6316
1489428116.9952139854,1489428116.9976189137, -1.1416, -0.0134, -0.0288, -4.6082, -2.0294, -3.2043
1489428116.9976880550,1489428117.0000948906, -1.1416, -0.0134, -0.0288, -4.6082, -2.0294, -3.2043
1489428117.0001640320,1489428117.0025870800, -1.1416, -0.0134, -0.0215, -4.6082, -2.0294, -3.2043
1489428117.0026559830,1489428117.0050630569, -1.1423, -0.0134, -0.0215, -4.6082, -2.0294, -3.2043
1489428117.0051319599,1489428117.0075340271, -1.1423, -0.0134, -0.0215, -4.3182, -2.1210, -3.2501
1489428117.0076038837,1489428117.0100059509, -1.1423, -0.0134, -0.0215, -4.3182, -2.1210, -3.2501
1489428117.0100750923,1489428117.0124828815, -1.1423, -0.0134, -0.0215, -4.3182, -2.1210, -3.2501
1489428117.0125520229,1489428117.0149559975, -1.1423, -0.0134, -0.0215, -4.3182, -2.1210, -3.2501
1489428117.0150249004,1489428117.0174319744, -1.1423, -0.0134, -0.0215, -4.5166, -1.9226, -3.1891
1489428117.0175011158,1489428117.0200510025, -1.1423, -0.0134, -0.0215, -4.5166, -1.9226, -3.1891
1489428117.0201199055,1489428117.0226531029, -1.1423, -0.0134, -0.0320, -4.5166, -1.9226, -3.1891
1489428117.0227229595,1489428117.0250999928, -1.1340, -0.0134, -0.0320, -4.5166, -1.9226, -3.1891
1489428117.0251700878,1489428117.0276510715, -1.1340, -0.0134, -0.0320, -4.5166, -1.7395, -3.4332
1489428117.0277209282,1489428117.0300900936, -1.1340, -0.0134, -0.0320, -4.9744, -1.7395, -3.4332
1489428117.0301589966,1489428117.0331580639, -1.1340, -0.0134, -0.0320, -4.9744, -1.7395, -3.4332
1489428117.0332300663,1489428117.0355091095, -1.1340, -0.0134, -0.0320, -4.9744, -1.7395, -3.4332
1489428117.0355780125,1489428117.0378561020, -1.1340, -0.0134, -0.0320, -4.9744, -1.7395, -3.5706
1489428117.0379250050,1489428117.0402009487, -1.1340, -0.0134, -0.0320, -4.8218, -1.7853, -3.5706
1489428117.0402700901,1489428117.0425550938, -1.1340, -0.0149, -0.0254, -4.8218, -1.7853, -3.5706
1489428117.0426249504,1489428117.0449008942, -1.1404, -0.0149, -0.0254, -4.8218, -1.7853, -3.5706
1489428117.0449700356,1489428117.0472431183, -1.1404, -0.0149, -0.0254, -4.8218, -1.7853, -3.5706
1489428117.0473120213,1489428117.0495939255, -1.1404, -0.0149, -0.0254, -4.6692, -2.0294, -3.3417
1489428117.0496630669,1489428117.0520579815, -1.1404, -0.0149, -0.0254, -4.6692, -2.0294, -3.3417
1489428117.0522489548,1489428117.0545339584, -1.1404, -0.0149, -0.0254, -4.6692, -2.0294, -3.3417
1489428117.0546030998,1489428117.0568809509, -1.1404, -0.0149, -0.0254, -4.6692, -2.0294, -3.3417
1489428117.0569500923,1489428117.0592229366, -1.1404, -0.0149, -0.0254, -4.6692, -2.1210, -3.2349
1489428117.0592908859,1489428117.0615758896, -1.1404, -0.0149, -0.0254, -4.6997, -2.1210, -3.2349
1489428117.0616450310,1489428117.0639250278, -1.1392, -0.0120, -0.0242, -4.6997, -2.1210, -3.2349
1489428117.0639939308,1489428117.0662710667, -1.1392, -0.0120, -0.0242, -4.6997, -2.1210, -3.2349
1489428117.0663399696,1489428117.0686149597, -1.1392, -0.0120, -0.0242, -4.6997, -2.1210, -3.2349
1489428117.0686841011,1489428117.0709879398, -1.1392, -0.0120, -0.0242, -5.1117, -2.2583, -3.0060
1489428117.0710570812,1489428117.0733339787, -1.1392, -0.0120, -0.0242, -5.1117, -2.2583, -3.0060
1489428117.0734040737,1489428117.0756809711, -1.1392, -0.0120, -0.0242, -5.1117, -2.2583, -3.0060
1489428117.0757489204,1489428117.0780320168, -1.1392, -0.0120, -0.0242, -5.1117, -2.2583, -3.0060
1489428117.0781009197,1489428117.0803771019, -1.1392, -0.0120, -0.0242, -5.1117, -1.7548, -2.7924
1489428117.0804460049,1489428117.0828340054, -1.1460, -0.0063, -0.0242, -5.2795, -1.7548, -2.7924
1489428117.0829041004,1489428117.0851778984, -1.1460, -0.0063, -0.0242, -5.2795, -1.7548, -2.7924
1489428117.0852470398,1489428117.0875229836, -1.1460, -0.0063, -0.0242, -5.2795, -1.7548, -2.7924
1489428117.0875930786,1489428117.0898759365, -1.1460, -0.0063, -0.0242, -5.2795, -1.7548, -2.7924
1489428117.0899450779,1489428117.0923891068, -1.1460, -0.0063, -0.0242, -5.1422, -2.3041, -3.5706
1489428117.0924599171,1489428117.0947449207, -1.1460, -0.0063, -0.0242, -5.1422, -2.3041, -3.5706
1489428117.0948140621,1489428117.0970909595, -1.1460, -0.0063, -0.0242, -5.1422, -2.3041, -3.5706
1489428117.0971601009,1489428117.0994389057, -1.1460, -0.0063, -0.0242, -5.1422, -2.3041, -3.5706
1489428117.0995080471,1489428117.1017930508, -1.1460, -0.0063, -0.0310, -4.8370, -2.3499, -3.9062
1489428117.1018640995,1489428117.1041419506, -1.1438, -0.0112, -0.0310, -4.8370, -2.3499, -3.9062
1489428117.1042110920,1489428117.1064860821, -1.1438, -0.0112, -0.0310, -4.8370, -2.3499, -3.9062
1489428117.1065549850,1489428117.1088299751, -1.1438, -0.0112, -0.0310, -4.8370, -2.3499, -3.9062
1489428117.1089000702,1489428117.1111989021, -1.1438, -0.0112, -0.0310, -4.8370, -2.3499, -3.9062
1489428117.1112680435,1489428117.1135420799, -1.1438, -0.0112, -0.0310, -4.7302, -2.6550, -4.0131
1489428117.1136119366,1489428117.1158900261, -1.1438, -0.0112, -0.0310, -4.7302, -2.6550, -4.0131
1489428117.1159589291,1489428117.1182370186, -1.1438, -0.0112, -0.0310, -4.7302, -2.6550, -4.0131
1489428117.1183059216,1489428117.1207389832, -1.1438, -0.0112, -0.0310, -4.7302, -2.6550, -4.0131
1489428117.1208090782,1489428117.1232268810, -1.1433, -0.0168, -0.0266, -4.5776, -2.8381, -3.8605
1489428117.1232960224,1489428117.1255869865, -1.1433, -0.0168, -0.0266, -4.5776, -2.8381, -3.8605
1489428117.1256549358,1489428117.1285140514, -1.1433, -0.0168, -0.0266, -4.5776, -2.8381, -3.8605
1489428117.1285839081,1489428117.1308720112, -1.1433, -0.0168, -0.0266, -4.5776, -2.8381, -3.8605
1489428117.1309919357,1489428117.1334049702, -1.1433, -0.0168, -0.0266, -4.5776, -2.7466, -3.6316
1489428117.1334741116,1489428117.1358830929, -1.1433, -0.0168, -0.0266, -4.1046, -2.7466, -3.6316
1489428117.1359519958,1489428117.1383609772, -1.1433, -0.0168, -0.0266, -4.1046, -2.7466, -3.6316
1489428117.1384301186,1489428117.1408340931, -1.1433, -0.0168, -0.0266, -4.1046, -2.7466, -3.6316
1489428117.1409549713,1489428117.1433610916, -1.1343, -0.0210, -0.0286, -4.1046, -2.7466, -3.0670
1489428117.1434299946,1489428117.1458389759, -1.1343, -0.0210, -0.0286, -4.0741, -2.3956, -3.0670
1489428117.1459081173,1489428117.1483130455, -1.1343, -0.0210, -0.0286, -4.0741, -2.3956, -3.0670
1489428117.1483829021,1489428117.1507968903, -1.1343, -0.0210, -0.0286, -4.0741, -2.3956, -3.0670
1489428117.1510190964,1489428117.1534309387, -1.1343, -0.0210, -0.0286, -4.0741, -2.3956, -3.0670
1489428117.1535010338,1489428117.1559059620, -1.1343, -0.0210, -0.0286, -4.4403, -2.5787, -3.0212
1489428117.1559760571,1489428117.1583850384, -1.1343, -0.0210, -0.0286, -4.4403, -2.5787, -3.0212
1489428117.1584539413,1489428117.1608610153, -1.1343, -0.0210, -0.0286, -4.4403, -2.5787, -3.0212
1489428117.1609830856,1489428117.1632649899, -1.1370, -0.0164, -0.0178, -4.4403, -2.5787, -3.0212
1489428117.1633338928,1489428117.1656210423, -1.1370, -0.0164, -0.0178, -3.5858, -2.5482, -2.1057
1489428117.1656899452,1489428117.1679720879, -1.1370, -0.0164, -0.0178, -3.5858, -2.5482, -2.1057
1489428117.1680400372,1489428117.1703290939, -1.1370, -0.0164, -0.0178, -3.5858, -2.5482, -2.1057
1489428117.1703979969,1489428117.1728160381, -1.1370, -0.0164, -0.0178, -3.5858, -2.5482, -2.1057
1489428117.1728858948,1489428117.1751699448, -1.1370, -0.0164, -0.0178, -3.5858, -2.5482, -1.8616
1489428117.1752400398,1489428117.1775290966, -1.1370, -0.0164, -0.0178, -4.1046, -2.4414, -1.8616
1489428117.1775979996,1489428117.1798789501, -1.1370, -0.0164, -0.0178, -4.1046, -2.4414, -1.8616
1489428117.1799480915,1489428117.1824579239, -1.1370, -0.0164, -0.0198, -4.1046, -2.4414, -1.8616
1489428117.1825280190,1489428117.1849350929, -1.1426, -0.0090, -0.0198, -4.1046, -2.4414, -1.8616
1489428117.1850059032,1489428117.1874060631, -1.1426, -0.0090, -0.0198, -3.5553, -2.8839, -1.9531
1489428117.1874759197,1489428117.1898849010, -1.1426, -0.0090, -0.0198, -3.5553, -2.8839, -1.9531
1489428117.1899559498,1489428117.1923749447, -1.1426, -0.0090, -0.0198, -3.5553, -2.8839, -1.9531
1489428117.1924450397,1489428117.1948521137, -1.1426, -0.0090, -0.0198, -3.5553, -2.8839, -1.9531
1489428117.1949210167,1489428117.1973359585, -1.1426, -0.0090, -0.0198, -2.7618, -2.6093, -1.7395
1489428117.1974070072,1489428117.1998140812, -1.1426, -0.0090, -0.0198, -2.7618, -2.6093, -1.7395
1489428117.1998848915,1489428117.2023398876, -1.1426, -0.0090, -0.0203, -2.7618, -2.6093, -1.7395
1489428117.2024099827,1489428117.2048199177, -1.1460, -0.0032, -0.0203, -2.7618, -2.6093, -1.7395
1489428117.2048909664,1489428117.2072939873, -1.1460, -0.0032, -0.0203, -2.7618, -2.9755, -1.8005
1489428117.2073640823,1489428117.2097671032, -1.1460, -0.0032, -0.0203, -2.2430, -2.9755, -1.8005
1489428117.2098369598,1489428117.2121939659, -1.1460, -0.0032, -0.0203, -2.2430, -2.9755, -1.8005
1489428117.2122650146,1489428117.2145440578, -1.1460, -0.0032, -0.0203, -2.2430, -2.9755, -1.8005
1489428117.2146129608,1489428117.2169020176, -1.1460, -0.0032, -0.0203, -2.2430, -2.9755, -1.8005
1489428117.2169709206,1489428117.2192590237, -1.1460, -0.0032, -0.0203, -2.0294, -3.5248, -2.0447
1489428117.2193279266,1489428117.2216610909, -1.1460, -0.0032, -0.0203, -2.0294, -3.5248, -2.0447
1489428117.2217309475,1489428117.2241408825, -1.1475,  0.0085, -0.0322, -2.0294, -3.5248, -2.0447
1489428117.2242109776,1489428117.2266139984, -1.1475,  0.0085, -0.0322, -2.0294, -3.5248, -2.0447
1489428117.2266840935,1489428117.2290968895, -1.1475,  0.0085, -0.0322, -2.1667, -4.0588, -2.4567
1489428117.2291679382,1489428117.2315890789, -1.1475,  0.0085, -0.0322, -2.1667, -4.0588, -2.4567
1489428117.2316598892,1489428117.2340669632, -1.1475,  0.0085, -0.0322, -2.1667, -4.0588, -2.4567
1489428117.2341370583,1489428117.2365469933, -1.1475,  0.0085, -0.0322, -2.1667, -4.0588, -2.4567
1489428117.2366170883,1489428117.2391479015, -1.1475,  0.0085, -0.0322, -2.6245, -4.2572, -2.9297
1489428117.2392189503,1489428117.2416329384, -1.1475,  0.0085, -0.0322, -2.6245, -4.2572, -2.9297
1489428117.2417039871,1489428117.2441120148, -1.1526, -0.0007, -0.0549, -2.6245, -4.2572, -2.9297
1489428117.2441809177,1489428117.2465810776, -1.1526, -0.0007, -0.0549, -2.6245, -4.2572, -2.9297
1489428117.2466509342,1489428117.2490580082, -1.1526, -0.0007, -0.0549, -2.6245, -4.2572, -3.5095
1489428117.2491281033,1489428117.2515380383, -1.1526, -0.0007, -0.0549, -2.6245, -4.4861, -3.5095
1489428117.2516069412,1489428117.2540071011, -1.1526, -0.0007, -0.0549, -2.6245, -4.4861, -3.5095
1489428117.2541871071,1489428117.2565910816, -1.1526, -0.0007, -0.0549, -2.6245, -4.4861, -3.5095
1489428117.2566609383,1489428117.2590620518, -1.1526, -0.0007, -0.0549, -2.6245, -4.4861, -3.5095
1489428117.2591309547,1489428117.2615199089, -1.1526, -0.0007, -0.0549, -2.9602, -4.7760, -3.7994
1489428117.2615909576,1489428117.2638680935, -1.1426, -0.0039, -0.0332, -2.9602, -4.7760, -3.7994
1489428117.2639379501,1489428117.2662150860, -1.1426, -0.0039, -0.0332, -2.9602, -4.7760, -3.7994
1489428117.2662849426,1489428117.2685680389, -1.1426, -0.0039, -0.0332, -2.9602, -4.7760, -3.7994
1489428117.2686378956,1489428117.2709650993, -1.1426, -0.0039, -0.0332, -3.3264, -5.9052, -3.7537
1489428117.2710340023,1489428117.2733190060, -1.1426, -0.0039, -0.0332, -3.3264, -5.9052, -3.7537
1489428117.2733879089,1489428117.2756690979, -1.1426, -0.0039, -0.0332, -3.3264, -5.9052, -3.7537
1489428117.2757389545,1489428117.2780210972, -1.1426, -0.0039, -0.0332, -3.3264, -5.9052, -3.7537
1489428117.2780909538,1489428117.2803759575, -1.1426, -0.0039, -0.0332, -3.3264, -5.9052, -3.7537
1489428117.2804460526,1489428117.2829110622, -1.1426, -0.0046, -0.0068, -2.9602, -5.9357, -3.5095
1489428117.2829830647,1489428117.2852680683, -1.1521, -0.0046, -0.0068, -2.9602, -5.9357, -3.5095
1489428117.2853379250,1489428117.2876219749, -1.1521, -0.0046, -0.0068, -2.9602, -5.9357, -3.5095
1489428117.2876920700,1489428117.2899720669, -1.1521, -0.0046, -0.0068, -2.9602, -5.9357, -3.5095
1489428117.2900419235,1489428117.2924981117, -1.1521, -0.0046, -0.0068, -2.5787, -5.5084, -3.3417
1489428117.2925679684,1489428117.2949750423, -1.1521, -0.0046, -0.0068, -2.5787, -5.5084, -3.3417
1489428117.2950448990,1489428117.2974491119, -1.1521, -0.0046, -0.0068, -2.5787, -5.5084, -3.3417
1489428117.2975189686,1489428117.2999260426, -1.1521, -0.0046, -0.0068, -2.5787, -5.5084, -3.3417
1489428117.2999949455,1489428117.3024079800, -1.1521, -0.0046, -0.0066, -2.5787, -5.8899, -2.9449
1489428117.3024780750,1489428117.3048810959, -1.1433, -0.0200, -0.0066, -1.7700, -5.8899, -2.9449
1489428117.3049509525,1489428117.3073558807, -1.1433, -0.0200, -0.0066, -1.7700, -5.8899, -2.9449
1489428117.3074259758,1489428117.3098309040, -1.1433, -0.0200, -0.0066, -1.7700, -5.8899, -2.9449
1489428117.3099009991,1489428117.3122799397, -1.1433, -0.0200, -0.0066, -1.7700, -5.8899, -2.9755
1489428117.3123500347,1489428117.3146300316, -1.1433, -0.0200, -0.0066, -1.3123, -5.5695, -2.9755
1489428117.3146998882,1489428117.3169839382, -1.1433, -0.0200, -0.0066, -1.3123, -5.5695, -2.9755
1489428117.3170530796,1489428117.3193309307, -1.1433, -0.0200, -0.0066, -1.3123, -5.5695, -2.9755
1489428117.3194010258,1489428117.3217709064, -1.1433, -0.0200, -0.0066, -1.3123, -5.5695, -2.9755
1489428117.3218410015,1489428117.3242440224, -1.1497, -0.0139, -0.0234, -0.3815, -5.7068, -2.8229
1489428117.3243160248,1489428117.3267190456, -1.1497, -0.0139, -0.0234, -0.3815, -5.7068, -2.8229
1489428117.3267910480,1489428117.3291919231, -1.1497, -0.0139, -0.0234, -0.3815, -5.7068, -2.8229
1489428117.3292620182,1489428117.3316709995, -1.1497, -0.0139, -0.0234, -0.3815, -5.7068, -2.8229
1489428117.3317410946,1489428117.3341419697, -1.1497, -0.0139, -0.0234, -0.3815, -6.4087, -3.1738
1489428117.3342130184,1489428117.3366160393, -1.1497, -0.0139, -0.0234, -0.3662, -6.4087, -3.1738
1489428117.3366870880,1489428117.3390901089, -1.1497, -0.0139, -0.0234, -0.3662, -6.4087, -3.1738
1489428117.3391599655,1489428117.3415730000, -1.1497, -0.0139, -0.0234, -0.3662, -6.4087, -3.1738
1489428117.3416440487,1489428117.3440489769, -1.1438,  0.0027, -0.0227, -0.3662, -6.4087, -3.5858
1489428117.3441209793,1489428117.3465230465, -1.1438,  0.0027, -0.0227, -0.9155, -6.4240, -3.5858
1489428117.3465950489,1489428117.3489949703, -1.1438,  0.0027, -0.0227, -0.9155, -6.4240, -3.5858
1489428117.3490669727,1489428117.3514740467, -1.1438,  0.0027, -0.0227, -0.9155, -6.4240, -3.5858
1489428117.3515460491,1489428117.3539490700, -1.1438,  0.0027, -0.0227, -0.9155, -6.4240, -3.5858
1489428117.3540220261,1489428117.3564319611, -1.1438,  0.0027, -0.0227, -1.0529, -6.8665, -4.0436
1489428117.3566129208,1489428117.3590168953, -1.1438,  0.0027, -0.0227, -1.0529, -6.8665, -4.0436
1489428117.3590869904,1489428117.3615119457, -1.1438,  0.0027, -0.0227, -1.0529, -6.8665, -4.0436
1489428117.3615820408,1489428117.3638629913, -1.1462,  0.0098, -0.0139, -1.0529, -6.8665, -4.0436
1489428117.3639340401,1489428117.3662180901, -1.1462,  0.0098, -0.0139, -1.0223, -7.1259, -4.5471
1489428117.3662879467,1489428117.3685669899, -1.1462,  0.0098, -0.0139, -1.0223, -7.1259, -4.5471
1489428117.3686380386,1489428117.3709580898, -1.1462,  0.0098, -0.0139, -1.0223, -7.1259, -4.5471
1489428117.3710279465,1489428117.3734390736, -1.1462,  0.0098, -0.0139, -1.0223, -7.1259, -4.5471
1489428117.3735098839,1489428117.3759140968, -1.1462,  0.0098, -0.0139, -1.0223, -7.1259, -5.3864
1489428117.3759839535,1489428117.3783869743, -1.1462,  0.0098, -0.0139, -1.6327, -7.4463, -5.3864
1489428117.3784570694,1489428117.3808629513, -1.1462,  0.0098, -0.0139, -1.6327, -7.4463, -5.3864
1489428117.3809800148,1489428117.3833870888, -1.1401,  0.0129, -0.0115, -1.6327, -7.4463, -5.3864
1489428117.3834569454,1489428117.3858621120, -1.1401,  0.0129, -0.0115, -1.6327, -7.4463, -5.3864
1489428117.3859319687,1489428117.3883380890, -1.1401,  0.0129, -0.0115, -2.3956, -8.1635, -6.0120
1489428117.3884088993,1489428117.3908090591, -1.1401,  0.0129, -0.0115, -2.3956, -8.1635, -6.0120
1489428117.3908801079,1489428117.3933310509, -1.1401,  0.0129, -0.0115, -2.3956, -8.1635, -6.0120
1489428117.3934009075,1489428117.3958079815, -1.1401,  0.0129, -0.0115, -2.3956, -8.1635, -6.0120
1489428117.3958790302,1489428117.3982870579, -1.1401,  0.0129, -0.0115, -2.8229, -8.8959, -6.8665
1489428117.3983581066,1489428117.4007630348, -1.1401,  0.0129, -0.0115, -2.8229, -8.8959, -6.8665
1489428117.4008328915,1489428117.4032459259, -1.1409,  0.0002, -0.0107, -2.8229, -8.8959, -6.8665
1489428117.4033169746,1489428117.4057190418, -1.1409,  0.0002, -0.0107, -2.8229, -8.8959, -6.8665
1489428117.4057888985,1489428117.4081940651, -1.1409,  0.0002, -0.0107, -2.8229, -9.3842, -7.4768
1489428117.4082639217,1489428117.4106678963, -1.1409,  0.0002, -0.0107, -3.2043, -9.3842, -7.4768
1489428117.4107389450,1489428117.4130749702, -1.1409,  0.0002, -0.0107, -3.2043, -9.3842, -7.4768
1489428117.4131460190,1489428117.4154291153, -1.1409,  0.0002, -0.0107, -3.2043, -9.3842, -7.4768
1489428117.4154980183,1489428117.4177830219, -1.1409,  0.0002, -0.0107, -3.2043, -9.3842,-11.3831
1489428117.4178569317,1489428117.4201400280, -1.1409,  0.0002, -0.0107, -3.0823,-10.1318, -7.9956
1489428117.4202139378,1489428117.4224960804, -1.1409, -0.0623,  0.0107, -3.0823,-10.1318, -7.9956
1489428117.4225699902,1489428117.4248499870, -1.1379, -0.0066,  0.0107, -3.0823,-10.1318, -7.9956
1489428117.4249238968,1489428117.4272029400, -1.1379, -0.0066,  0.0107, -3.0823,-10.1318, -7.9956
1489428117.4272770882,1489428117.4295520782, -1.1379, -0.0066,  0.0107, -3.5248,-10.6506, -8.4534
1489428117.4296259880,1489428117.4320020676, -1.1379, -0.0066,  0.0107, -3.5248,-10.6506, -8.4534
1489428117.4320769310,1489428117.4344830513, -1.1379, -0.0066,  0.0107, -3.5248,-10.6506, -8.4534
1489428117.4345579147,1489428117.4369640350, -1.1379, -0.0066,  0.0107, -3.5248,-10.6506, -8.4534
1489428117.4370379448,1489428117.4394390583, -1.1379, -0.0066,  0.0107, -3.5248,-10.6506, -9.2316
1489428117.4395139217,1489428117.4419660568, -1.1379, -0.0066,  0.0107, -3.1433,-11.3831, -9.2316
1489428117.4420399666,1489428117.4444510937, -1.1401,  0.0125,  0.0061, -3.1433,-11.3831, -9.2316
1489428117.4445269108,1489428117.4469358921, -1.1401,  0.0125,  0.0061, -3.1433,-11.3831, -9.2316
1489428117.4470119476,1489428117.4494159222, -1.1401,  0.0125,  0.0061, -3.1433,-11.3831, -9.2316
1489428117.4494910240,1489428117.4519500732, -1.1401,  0.0125,  0.0061, -2.9297,-12.1613,-10.5743
1489428117.4520270824,1489428117.4544370174, -1.1401,  0.0125,  0.0061, -2.9297,-12.1613,-10.5743
1489428117.4545149803,1489428117.4569180012, -1.1401,  0.0125,  0.0061, -2.9297,-12.1613,-10.5743
1489428117.4569950104,1489428117.4593970776, -1.1401,  0.0125,  0.0061, -2.9297,-12.1613,-10.5743
1489428117.4595830441,1489428117.4619519711, -1.1401,  0.0125,  0.0061, -4.1351,-12.7411,-12.3901
1489428117.4620289803,1489428117.4643120766, -1.1636,  0.0322, -0.0132, -4.1351,-12.7411,-12.3901
1489428117.4643869400,1489428117.4666678905, -1.1636,  0.0322, -0.0132, -4.1351,-12.7411,-12.3901
1489428117.4667439461,1489428117.4690299034, -1.1636,  0.0322, -0.0132, -4.1351,-12.7411,-12.3901
1489428117.4691059589,1489428117.4714229107, -1.1636,  0.0322, -0.0132, -4.1351,-14.4043,-13.9771
1489428117.4714989662,1489428117.4739038944, -1.1636,  0.0322, -0.0132, -5.6152,-14.4043,-13.9771
1489428117.4739789963,1489428117.4763810635, -1.1636,  0.0322, -0.0132, -5.6152,-14.4043,-13.9771
1489428117.4764571190,1489428117.4788649082, -1.1636,  0.0322, -0.0132, -5.6152,-14.4043,-13.9771
1489428117.4789419174,1489428117.4813559055, -1.1636,  0.0322, -0.0132, -5.6152,-14.4043,-17.8833
1489428117.4814319611,1489428117.4838340282, -1.1545,  0.0168, -0.0137, -7.4463,-14.9384,-15.7471
1489428117.4839110374,1489428117.4863159657, -1.1545,  0.0168, -0.0137, -7.4463,-14.9384,-15.7471
1489428117.4863929749,1489428117.4887990952, -1.1545,  0.0168, -0.0137, -7.4463,-14.9384,-15.7471
1489428117.4888749123,1489428117.4912800789, -1.1545,  0.0168, -0.0137, -7.4463,-14.9384,-15.7471
1489428117.4913558960,1489428117.4937651157, -1.1545,  0.0168, -0.0137, -8.0872,-15.3351,-17.4713
1489428117.4938418865,1489428117.4962460995, -1.1545,  0.0168, -0.0137, -8.0872,-15.3351,-17.4713
1489428117.4963231087,1489428117.4987258911, -1.1545,  0.0168, -0.0137, -8.0872,-15.3351,-17.4713
1489428117.4988029003,1489428117.5012230873, -1.1545,  0.0168, -0.0137, -8.0872,-15.3351,-17.4713
1489428117.5013000965,1489428117.5037019253, -1.1519,  0.0100, -0.0134, -8.0872,-15.8997,-18.9362
1489428117.5037789345,1489428117.5061879158, -1.1519,  0.0100, -0.0134, -8.0872,-15.8997,-18.9362
1489428117.5062649250,1489428117.5086700916, -1.1519,  0.0100, -0.0134, -8.0872,-15.8997,-18.9362
1489428117.5087471008,1489428117.5111498833, -1.1519,  0.0100, -0.0134, -8.0872,-15.8997,-18.9362
1489428117.5112280846,1489428117.5135090351, -1.1519,  0.0100, -0.0134, -8.0872,-15.8997,-19.9127
1489428117.5135869980,1489428117.5158679485, -1.1519,  0.0100, -0.0134, -8.3313,-16.8915,-19.9127
1489428117.5159440041,1489428117.5182259083, -1.1519,  0.0100, -0.0134, -8.3313,-16.8915,-19.9127
1489428117.5183019638,1489428117.5205819607, -1.1519,  0.0100, -0.0134, -8.3313,-16.8915,-19.9127
1489428117.5206599236,1489428117.5230560303, -1.1519, -0.0122,  0.0269, -8.3313,-16.8915,-19.9127
1489428117.5231330395,1489428117.5255410671, -1.1521, -0.0122,  0.0269, -8.3923,-17.4103,-21.4691
1489428117.5256180763,1489428117.5280280113, -1.1521, -0.0122,  0.0269, -8.3923,-17.4103,-21.4691
1489428117.5281050205,1489428117.5305120945, -1.1521, -0.0122,  0.0269, -8.3923,-17.4103,-21.4691
1489428117.5305891037,1489428117.5330190659, -1.1521, -0.0122,  0.0269, -8.3923,-17.4103,-21.4691
1489428117.5330979824,1489428117.5355050564, -1.1521, -0.0122,  0.0269, -7.9346,-18.7836,-23.7274
1489428117.5355811119,1489428117.5379951000, -1.1521, -0.0122,  0.0269, -7.9346,-18.7836,-23.7274
1489428117.5380709171,1489428117.5404798985, -1.1521, -0.0122,  0.0269, -7.9346,-18.7836,-23.7274
1489428117.5405559540,1489428117.5429871082, -1.1521, -0.0085,  0.0229, -7.9346,-18.7836,-23.7274
1489428117.5430641174,1489428117.5454719067, -1.1724, -0.0085,  0.0229, -4.0283,-19.5007,-25.4364
1489428117.5455489159,1489428117.5479578972, -1.1724, -0.0085,  0.0229, -7.1411,-19.5007,-25.4364
1489428117.5480349064,1489428117.5504469872, -1.1724, -0.0085,  0.0229, -7.1411,-19.5007,-25.4364
1489428117.5505230427,1489428117.5528368950, -1.1724, -0.0085,  0.0229, -7.1411,-19.5007,-25.4364
1489428117.5529139042,1489428117.5551929474, -1.1724, -0.0085,  0.0229, -7.1411,-19.5007,-25.4364
1489428117.5552699566,1489428117.5575549603, -1.1724, -0.0085,  0.0229, -7.2937,-20.3094,-27.2217
1489428117.5576310158,1489428117.5599110126, -1.1724, -0.0085,  0.0229, -7.2937,-20.3094,-27.2217
1489428117.5599880219,1489428117.5623269081, -1.1724, -0.0085,  0.0286, -7.2937,-20.3094,-27.2217
1489428117.5625178814,1489428117.5648028851, -1.1892,  0.0212,  0.0286, -7.2937,-20.3094,-27.2217
1489428117.5648789406,1489428117.5671629906, -1.1892,  0.0212,  0.0286, -7.4768,-20.8588,-29.3579
1489428117.5672390461,1489428117.5695230961, -1.1892,  0.0212,  0.0286, -7.4768,-20.8588,-29.3579
1489428117.5695979595,1489428117.5719211102, -1.1892,  0.0212,  0.0286, -7.4768,-20.8588,-29.3579
1489428117.5719969273,1489428117.5742769241, -1.1892,  0.0212,  0.0286, -7.4768,-20.8588,-29.3579
1489428117.5743520260,1489428117.5766329765, -1.1892,  0.0212,  0.0286, -7.4768,-20.8588,-32.1655
1489428117.5767090321,1489428117.5789840221, -1.1892,  0.0212,  0.0286, -9.4910,-22.3389,-32.1655
1489428117.5790600777,1489428117.5813899040, -1.1892,  0.0212,  0.0286, -9.4910,-22.3389,-32.1655
1489428117.5814669132,1489428117.5838720798, -1.2061,  0.0271,  0.0273, -9.4910,-22.3389,-32.1655
1489428117.5839490891,1489428117.5863559246, -1.2061,  0.0271,  0.0273, -9.4910,-22.3389,-32.1655
1489428117.5864329338,1489428117.5888381004, -1.2061,  0.0271,  0.0273, -9.8724,-23.5901,-35.2020
1489428117.5889151096,1489428117.5913341045, -1.2061,  0.0271,  0.0273, -9.8724,-23.5901,-35.2020
1489428117.5914111137,1489428117.5938129425, -1.2061,  0.0271,  0.0273, -9.8724,-23.5901,-35.2020
1489428117.5938899517,1489428117.5962960720, -1.2061,  0.0271,  0.0273, -9.8724,-23.5901,-35.2020
1489428117.5963740349,1489428117.5987849236, -1.2061,  0.0271,  0.0273,-11.3220,-24.2920,-37.6892
1489428117.5988650322,1489428117.6012749672, -1.2061,  0.0271,  0.0273,-11.3220,-24.2920,-37.6892
1489428117.6013538837,1489428117.6037631035, -1.2454,  0.0332, -0.0049,-11.3220,-24.2920,-37.6892
1489428117.6038420200,1489428117.6062469482, -1.2454,  0.0332, -0.0049,-11.3220,-24.2920,-37.6892
1489428117.6063270569,1489428117.6087300777, -1.2454,  0.0332, -0.0049,-11.3220,-24.8260,-40.7715
1489428117.6088089943,1489428117.6112229824, -1.2454,  0.0332, -0.0049,-14.0991,-24.8260,-40.7715
1489428117.6113018990,1489428117.6137089729, -1.2454,  0.0332, -0.0049,-14.0991,-24.8260,-40.7715
1489428117.6137890816,1489428117.6161930561, -1.2454,  0.0332, -0.0049,-14.0991,-24.8260,-40.7715
1489428117.6162729263,1489428117.6186759472, -1.2454,  0.0332, -0.0049,-14.0991,-24.8260,-44.6777
1489428117.6187551022,1489428117.6211650372, -1.2454,  0.0332, -0.0049,-16.1133,-25.6653,-43.7164
1489428117.6212439537,1489428117.6235260963, -1.2654,  0.0403, -0.0193,-16.1133,-25.6653,-43.7164
1489428117.6236040592,1489428117.6258859634, -1.2654,  0.0403, -0.0193,-16.1133,-25.6653,-43.7164
1489428117.6259639263,1489428117.6282451153, -1.2654,  0.0403, -0.0193,-16.1133,-25.6653,-43.7164
1489428117.6283218861,1489428117.6306080818, -1.2654,  0.0403, -0.0193,-20.2942,-26.6724,-49.6521
1489428117.6306860447,1489428117.6331369877, -1.2654,  0.0403, -0.0193,-20.2942,-26.6724,-49.6521
1489428117.6332149506,1489428117.6356210709, -1.2654,  0.0403, -0.0193,-20.2942,-26.6724,-49.6521
1489428117.6356990337,1489428117.6381120682, -1.2654,  0.0403, -0.0193,-20.2942,-26.6724,-49.6521
1489428117.6381900311,1489428117.6405971050, -1.2654,  0.0403, -0.0193,-20.2942,-27.2980,-53.7872
1489428117.6406750679,1489428117.6431260109, -1.2654,  0.0378, -0.0535,-22.1405,-27.2980,-53.7872
1489428117.6432049274,1489428117.6456079483, -1.3796,  0.0378, -0.0535,-22.1405,-27.2980,-53.7872
1489428117.6456871033,1489428117.6480929852, -1.3796,  0.0378, -0.0535,-22.1405,-27.2980,-53.7872
1489428117.6481709480,1489428117.6505739689, -1.3796,  0.0378, -0.0535,-22.1405,-27.2980,-59.8755
1489428117.6506519318,1489428117.6530559063, -1.3796,  0.0378, -0.0535,-23.0713,-27.0081,-59.8755
1489428117.6531350613,1489428117.6555430889, -1.3796,  0.0378, -0.0535,-23.0713,-27.0081,-59.8755
1489428117.6556220055,1489428117.6580259800, -1.3796,  0.0378, -0.0535,-23.0713,-27.0081,-59.8755
1489428117.6581048965,1489428117.6605069637, -1.3796,  0.0378, -0.0535,-23.0713,-27.0081,-59.8755
1489428117.6605861187,1489428117.6630120277, -1.3796,  0.0110, -0.0276,-23.4222,-26.7944,-64.6515
1489428117.6631910801,1489428117.6655991077, -1.4924,  0.0110, -0.0276,-23.4222,-26.7944,-64.6515
1489428117.6656780243,1489428117.6680860519, -1.4924,  0.0110, -0.0276,-23.4222,-26.7944,-64.6515
1489428117.6681640148,1489428117.6705760956, -1.4924,  0.0110, -0.0276,-23.4222,-26.7944,-64.6515
1489428117.6706540585,1489428117.6729719639, -1.4924,  0.0110, -0.0276,-19.1650,-26.6266,-69.9921
1489428117.6730511189,1489428117.6753370762, -1.4924,  0.0110, -0.0276,-19.1650,-26.6266,-69.9921
1489428117.6754159927,1489428117.6776978970, -1.4924,  0.0110, -0.0276,-19.1650,-26.6266,-69.9921
1489428117.6777760983,1489428117.6800611019, -1.4924,  0.0110, -0.0276,-19.1650,-26.6266,-69.9921
1489428117.6801381111,1489428117.6824638844, -1.4924,  0.0110, -0.0688,-19.1650,-26.6266,-74.6918
1489428117.6825420856,1489428117.6848220825, -1.4446,  0.0088, -0.0688,-11.8866,-24.2615,-74.6918
1489428117.6849000454,1489428117.6871819496, -1.4446,  0.0088, -0.0688,-11.8866,-24.2615,-74.6918
1489428117.6872611046,1489428117.6895420551, -1.4446,  0.0088, -0.0688,-11.8866,-24.2615,-74.6918
1489428117.6896209717,1489428117.6919939518, -1.4446,  0.0088, -0.0688,-11.8866,-24.2615,-74.6918
1489428117.6920740604,1489428117.6944808960, -1.4446,  0.0088, -0.0688,-10.0861,-22.8577,-76.4771
1489428117.6945619583,1489428117.6969718933, -1.4446,  0.0088, -0.0688,-10.0861,-22.8577,-76.4771
1489428117.6970520020,1489428117.6994569302, -1.4446,  0.0088, -0.0688,-10.0861,-22.8577,-76.4771
1489428117.6995370388,1489428117.7019519806, -1.4446,  0.0088, -0.0688,-10.0861,-22.8577,-76.4771
1489428117.7020308971,1489428117.7044401169, -1.3735, -0.0728, -0.0173,-12.6495,-22.5677,-76.7212
1489428117.7045180798,1489428117.7069230080, -1.3735, -0.0728, -0.0173,-12.6495,-22.5677,-76.7212
1489428117.7070019245,1489428117.7094058990, -1.3735, -0.0728, -0.0173,-12.6495,-22.5677,-76.7212
1489428117.7094841003,1489428117.7119379044, -1.3735, -0.0728, -0.0173,-12.6495,-22.5677,-76.7212
1489428117.7120170593,1489428117.7144200802, -1.3735, -0.0728, -0.0173,-12.6495,-23.5901,-75.6073
1489428117.7144980431,1489428117.7169001102, -1.3735, -0.0728, -0.0173, -8.6060,-23.5901,-75.6073
1489428117.7169780731,1489428117.7193861008, -1.3735, -0.0728, -0.0173, -8.6060,-23.5901,-75.6073
1489428117.7194631100,1489428117.7218270302, -1.3735, -0.0728, -0.0173, -8.6060,-23.5901,-75.6073
1489428117.7219040394,1489428117.7241909504, -1.2351, -0.0891, -0.0283, -8.6060,-23.5901,-75.6073
1489428117.7242679596,1489428117.7265479565, -1.2351, -0.0891, -0.0283, -6.3019,-21.7285,-72.5250
1489428117.7266230583,1489428117.7289009094, -1.2351, -0.0891, -0.0283, -6.3019,-21.7285,-72.5250
1489428117.7289769650,1489428117.7312870026, -1.2351, -0.0891, -0.0283, -6.3019,-21.7285,-72.5250
1489428117.7313630581,1489428117.7337679863, -1.2351, -0.0891, -0.0283, -6.3019,-21.7285,-72.5250
1489428117.7338449955,1489428117.7362520695, -1.2351, -0.0891, -0.0283, -6.8054,-18.2953,-66.7572
1489428117.7363290787,1489428117.7387330532, -1.2351, -0.0891, -0.0283, -6.8054,-18.2953,-66.7572
1489428117.7388091087,1489428117.7412230968, -1.2351, -0.0891, -0.0283, -6.8054,-18.2953,-66.7572
1489428117.7412989140,1489428117.7437078953, -1.2451,  0.0188, -0.0417, -6.8054,-18.2953,-66.7572
1489428117.7437839508,1489428117.7461938858, -1.2451,  0.0188, -0.0417, -6.8054,-14.8926,-57.6324
1489428117.7462699413,1489428117.7486739159, -1.2451,  0.0188, -0.0417, -6.0883,-14.8926,-57.6324
1489428117.7487509251,1489428117.7511649132, -1.2451,  0.0188, -0.0417, -6.0883,-14.8926,-57.6324
1489428117.7512409687,1489428117.7536540031, -1.2451,  0.0188, -0.0417, -6.0883,-14.8926,-57.6324
1489428117.7537300587,1489428117.7561380863, -1.2451,  0.0188, -0.0417, -6.0883,-14.8926,-45.9137
1489428117.7562150955,1489428117.7586169243, -1.2451,  0.0188, -0.0417, -2.3651,-13.2446,-46.2646
1489428117.7586929798,1489428117.7611420155, -1.2451,  0.0188, -0.0417, -2.3651,-13.2446,-46.2646
1489428117.7612190247,1489428117.7636260986, -0.9478,  0.3271, -0.0364, -2.3651,-13.2446,-46.2646
1489428117.7637031078,1489428117.7661120892, -0.9478,  0.3271, -0.0364, -2.3651,-13.2446,-46.2646
1489428117.7663009167,1489428117.7687079906, -0.9478,  0.3271, -0.0364, -1.2054,-12.0850,-34.3628
1489428117.7687859535,1489428117.7711970806, -0.9478,  0.3271, -0.0364, -1.2054,-12.0850,-34.3628
1489428117.7712740898,1489428117.7735600471, -0.9478,  0.3271, -0.0364, -1.2054,-12.0850,-34.3628
1489428117.7736370564,1489428117.7759189606, -0.9478,  0.3271, -0.0364, -1.2054,-12.0850,-34.3628
1489428117.7759950161,1489428117.7782790661, -0.9478,  0.3271, -0.0364, -7.7972, -8.6212,-22.4152
1489428117.7783548832,1489428117.7806379795, -0.9478,  0.3271, -0.0364, -7.7972, -8.6212,-22.4152
1489428117.7807130814,1489428117.7831530571, -0.9478,  0.2451,  0.0188, -7.7972, -8.6212,-22.4152
1489428117.7832291126,1489428117.7856340408, -1.0017,  0.2451,  0.0188, -7.7972, -8.6212,-22.4152
1489428117.7857089043,1489428117.7881190777, -1.0017,  0.2451,  0.0188, -7.7972, -8.6212,-14.3890
1489428117.7881929874,1489428117.7905969620, -1.0017,  0.2451,  0.0188,-11.3525, -5.1575,-14.3890
1489428117.7906730175,1489428117.7930889130, -1.0017,  0.2451,  0.0188,-11.3525, -5.1575,-14.3890
1489428117.7931659222,1489428117.7955760956, -1.0017,  0.2451,  0.0188,-11.3525, -5.1575,-14.3890
1489428117.7956519127,1489428117.7980599403, -1.0017,  0.2451,  0.0188,-11.3525, -5.1575,-14.3890
1489428117.7981369495,1489428117.8005449772, -1.0017,  0.2451,  0.0188, -5.6000, -2.1210, -5.6610
1489428117.8006160259,1489428117.8030378819, -1.0017,  0.4326,  0.0308, -5.6000, -2.1210, -5.6610
1489428117.8031098843,1489428117.8055160046, -0.8943,  0.3857,  0.0308, -5.6000, -2.1210, -5.6610
1489428117.8055880070,1489428117.8079960346, -0.8943,  0.3857,  0.0308, -5.6000, -2.1210, -5.6610
1489428117.8080670834,1489428117.8104729652, -0.8943,  0.3857,  0.0308, -5.3558,  2.1667,  7.8888
1489428117.8105440140,1489428117.8129620552, -0.8943,  0.3857,  0.0308, -5.3558,  2.1667,  7.8888
1489428117.8130331039,1489428117.8154439926, -0.8943,  0.3857,  0.0308, -5.3558,  2.1667,  7.8888
1489428117.8155140877,1489428117.8179190159, -0.8943,  0.3857,  0.0308, -5.3558,  2.1667,  7.8888
1489428117.8179900646,1489428117.8204009533, -0.8943,  0.3857,  0.0308,-13.1683,  4.5013, 20.3247
1489428117.8204789162,1489428117.8228540421, -0.8943,  0.4482,  0.0381,-14.9078,  4.5013, 20.3247
1489428117.8229329586,1489428117.8252160549, -0.9456,  0.4980,  0.0381,-14.9078,  4.5013, 20.3247
1489428117.8252930641,1489428117.8275771141, -0.9456,  0.4980,  0.0381,-14.9078,  4.5013, 20.3247
1489428117.8276538849,1489428117.8299369812, -0.9456,  0.4980,  0.0381,-14.9078,  4.5013, 20.3247
1489428117.8300139904,1489428117.8323099613, -0.9456,  0.4980,  0.0381,-27.2369,  7.6904, 30.7617
1489428117.8323879242,1489428117.8346679211, -0.9456,  0.4980,  0.0381,-27.2369,  7.6904, 30.7617
1489428117.8347439766,1489428117.8370211124, -0.9456,  0.4980,  0.0381,-27.2369,  7.6904, 30.7617
1489428117.8370978832,1489428117.8393750191, -0.9456,  0.4980,  0.0381,-27.2369,  7.6904, 30.7617
1489428117.8394520283,1489428117.8417990208, -0.9456,  0.4980,  0.0381,-35.9192,  9.8877, 39.3982
1489428117.8418769836,1489428117.8442790508, -0.8914,  0.3760,  0.0879,-35.9192,  9.8877, 39.3982
1489428117.8443570137,1489428117.8467650414, -0.8914,  0.3760,  0.0879,-35.9192,  9.8877, 39.3982
1489428117.8468430042,1489428117.8492460251, -0.8914,  0.3760,  0.0879,-35.9192,  9.8877, 39.3982
1489428117.8493239880,1489428117.8517389297, -0.8914,  0.3760,  0.0879,-35.9192,  9.8877, 47.7905
1489428117.8518168926,1489428117.8542211056, -0.8914,  0.3760,  0.0879,-39.5355, 11.6882, 47.7905
1489428117.8543009758,1489428117.8567059040, -0.8914,  0.3760,  0.0879,-39.5355, 11.6882, 47.7905
1489428117.8567860126,1489428117.8591918945, -0.8914,  0.3760,  0.0879,-39.5355, 11.6882, 47.7905
1489428117.8592710495,1489428117.8616769314, -0.8914,  0.3760,  0.0879,-39.5355, 11.6882, 55.6030
1489428117.8617560863,1489428117.8641610146, -0.9407,  0.3535,  0.0566,-40.2222, 13.3514, 57.1136
1489428117.8642399311,1489428117.8666450977, -0.9407,  0.3535,  0.0566,-40.2222, 13.3514, 57.1136
1489428117.8667249680,1489428117.8691310883, -0.9407,  0.3535,  0.0566,-40.2222, 13.3514, 57.1136
1489428117.8693189621,1489428117.8717429638, -0.9407,  0.3535,  0.0566,-40.2222, 13.3514, 57.1136
1489428117.8718221188,1489428117.8742270470, -0.9407,  0.3535,  0.0566,-40.8478, 14.9078, 65.4602
1489428117.8743059635,1489428117.8767149448, -0.9407,  0.3535,  0.0566,-40.8478, 14.9078, 65.4602
1489428117.8767940998,1489428117.8791999817, -0.9407,  0.3535,  0.0566,-40.8478, 14.9078, 65.4602
1489428117.8792788982,1489428117.8816909790, -0.9407,  0.3535,  0.0566,-40.8478, 14.9078, 65.4602
1489428117.8817698956,1489428117.8840548992, -0.9731,  0.3230,  0.0496,-41.8854, 16.3879, 72.5861
1489428117.8841350079,1489428117.8864190578, -0.9731,  0.3230,  0.0496,-41.8854, 16.3879, 72.5861
1489428117.8864989281,1489428117.8887829781, -0.9731,  0.3230,  0.0496,-41.8854, 16.3879, 72.5861
1489428117.8888630867,1489428117.8911890984, -0.9731,  0.3230,  0.0496,-41.8854, 16.3879, 72.5861
1489428117.8912680149,1489428117.8936710358, -0.9731,  0.3230,  0.0496,-41.8854, 16.3879, 79.5898
1489428117.8937499523,1489428117.8961589336, -0.9731,  0.3230,  0.0496,-40.0238, 17.2882, 79.5898
1489428117.8962368965,1489428117.8986399174, -0.9731,  0.3230,  0.0496,-40.0238, 17.2882, 79.5898
1489428117.8987190723,1489428117.9011640549, -0.9731,  0.3230,  0.0496,-40.0238, 17.2882, 79.5898
1489428117.9012439251,1489428117.9036529064, -1.0278,  0.2476,  0.0647,-40.0238, 17.2882, 79.5898
1489428117.9037320614,1489428117.9061410427, -1.0278,  0.2476,  0.0647,-37.2314, 17.4255, 86.4716
1489428117.9062209129,1489428117.9086310863, -1.0278,  0.2476,  0.0647,-37.2314, 17.4255, 86.4716
1489428117.9087100029,1489428117.9111890793, -1.0278,  0.2476,  0.0647,-37.2314, 17.4255, 86.4716
1489428117.9112689495,1489428117.9136769772, -1.0278,  0.2476,  0.0647,-37.2314, 17.4255, 86.4716
1489428117.9137558937,1489428117.9161610603, -1.0278,  0.2476,  0.0647,-34.6680, 18.0359, 93.2770
1489428117.9162409306,1489428117.9186489582, -1.0278,  0.2476,  0.0647,-34.6680, 18.0359, 93.2770
1489428117.9187300205,1489428117.9211509228, -1.0278,  0.2476,  0.0647,-34.6680, 18.0359, 93.2770
1489428117.9212310314,1489428117.9236359596, -1.0903,  0.1885,  0.0574,-34.6680, 18.0359, 93.2770
1489428117.9237151146,1489428117.9261260033, -1.1145,  0.1885,  0.0574,-30.7617, 18.4479, 99.1821
1489428117.9262039661,1489428117.9286079407, -1.1145,  0.1885,  0.0574,-30.7770, 18.4479, 99.1821
1489428117.9286880493,1489428117.9311470985, -1.1145,  0.1885,  0.0574,-30.7770, 18.4479, 99.1821
1489428117.9312269688,1489428117.9335069656, -1.1145,  0.1885,  0.0574,-30.7770, 18.4479, 99.1821
1489428117.9335858822,1489428117.9358708858, -1.1145,  0.1885,  0.0574,-30.7770, 18.4479,104.8431
1489428117.9359500408,1489428117.9382290840, -1.1145,  0.1885,  0.0574,-27.9541, 18.6768,104.8431
1489428117.9383080006,1489428117.9405879974, -1.1145,  0.1885,  0.0574,-27.9541, 18.6768,104.8431
1489428117.9406669140,1489428117.9429550171, -1.1145,  0.0635,  0.0525,-27.9541, 18.6768,104.8431
1489428117.9430339336,1489428117.9453110695, -1.1807,  0.1152,  0.0525,-27.9541, 18.6768,104.8431
1489428117.9453899860,1489428117.9476668835, -1.1807,  0.1152,  0.0525,-22.9797, 18.1122,108.7799
1489428117.9477450848,1489428117.9500260353, -1.1807,  0.1152,  0.0525,-22.9797, 18.1122,108.7799
1489428117.9501049519,1489428117.9524700642, -1.1807,  0.1152,  0.0525,-22.9797, 18.1122,108.7799
1489428117.9525499344,1489428117.9549610615, -1.1807,  0.1152,  0.0525,-22.9797, 18.1122,108.7799
1489428117.9550409317,1489428117.9574480057, -1.1807,  0.1152,  0.0525,-22.9797, 18.1122,111.7249
1489428117.9575281143,1489428117.9599349499, -1.1807,  0.1152,  0.0525,-17.2119, 17.9901,111.7249
1489428117.9600150585,1489428117.9624340534, -1.1807,  0.1152,  0.0525,-17.2119, 17.9901,111.7249
1489428117.9625139236,1489428117.9649169445, -1.2322,  0.1182,  0.0491,-17.2119, 17.9901,111.7249
1489428117.9649960995,1489428117.9674029350, -1.2322,  0.1182,  0.0491,-17.2119, 17.9901,115.6311
1489428117.9674839973,1489428117.9698910713, -1.2322,  0.1182,  0.0491,-12.9395, 18.2190,115.0208
1489428117.9699709415,1489428117.9723870754, -1.2322,  0.1182,  0.0491,-12.9395, 18.2190,115.0208
1489428117.9725730419,1489428117.9749839306, -1.2322,  0.1182,  0.0491,-12.9395, 18.2190,115.0208
1489428117.9750640392,1489428117.9774699211, -1.2322,  0.1182,  0.0491,-12.9395, 18.2190,115.0208
1489428117.9775500298,1489428117.9799590111, -1.2322,  0.1182,  0.0491, -9.2621, 18.6615,117.4927
1489428117.9800379276,1489428117.9824600220, -1.2322,  0.1182,  0.0491, -9.2621, 18.6615,117.4927
1489428117.9825379848,1489428117.9849460125, -1.2747,  0.0835,  0.0359, -9.2621, 18.6615,117.4927
1489428117.9850239754,1489428117.9874320030, -1.2747,  0.0835,  0.0359, -9.2621, 18.6615,117.4927
1489428117.9875090122,1489428117.9899210930, -1.2747,  0.0835,  0.0359, -6.8359, 19.1650,119.3085
1489428117.9899981022,1489428117.9923489094, -1.2747,  0.0835,  0.0359, -6.8359, 19.1650,119.3085
1489428117.9924259186,1489428117.9947071075, -1.2747,  0.0835,  0.0359, -6.8359, 19.1650,119.3085
1489428117.9947829247,1489428117.9970710278, -1.2747,  0.0835,  0.0359, -6.8359, 19.1650,119.3085
1489428117.9971489906,1489428117.9994320869, -1.2747,  0.0835,  0.0359, -6.8359, 19.1650,119.8273
1489428117.9995079041,1489428118.0018479824, -1.2747,  0.0835,  0.0359, -4.7760, 20.6299,119.8273
1489428118.0019268990,1489428118.0043349266, -1.2849,  0.0574,  0.0054, -4.7760, 20.6299,119.8273
1489428118.0044128895,1489428118.0068199635, -1.2849,  0.0574,  0.0054, -4.7760, 20.6299,119.8273
1489428118.0068969727,1489428118.0093030930, -1.2849,  0.0574,  0.0054, -4.7760, 20.6299,119.8273
1489428118.0093801022,1489428118.0117959976, -1.2849,  0.0574,  0.0054, -1.5106, 21.4386,119.4153
1489428118.0118739605,1489428118.0142800808, -1.2849,  0.0574,  0.0054, -1.5106, 21.4386,119.4153
1489428118.0143570900,1489428118.0167679787, -1.2849,  0.0574,  0.0054, -1.5106, 21.4386,119.4153
1489428118.0168449879,1489428118.0192511082, -1.2849,  0.0574,  0.0054, -1.5106, 21.4386,119.4153
1489428118.0193281174,1489428118.0217409134, -1.2849,  0.0574,  0.0054,  3.1891, 22.8577,118.1183
1489428118.0218179226,1489428118.0242230892, -1.3132,  0.0474, -0.0308,  3.1891, 22.8577,118.1183
1489428118.0242989063,1489428118.0267078876, -1.3132,  0.0474, -0.0308,  3.1891, 22.8577,118.1183
1489428118.0267839432,1489428118.0291910172, -1.3132,  0.0474, -0.0308,  3.1891, 22.8577,118.1183
1489428118.0292670727,1489428118.0316779613, -1.3132,  0.0474, -0.0308, 11.0016, 25.2380,116.4856
1489428118.0317580700,1489428118.0341689587, -1.3132,  0.0474, -0.0308,  7.9041, 25.2380,116.4856
1489428118.0342469215,1489428118.0366559029, -1.3132,  0.0474, -0.0308,  7.9041, 25.2380,116.4856
1489428118.0367329121,1489428118.0391380787, -1.3132,  0.0474, -0.0308,  7.9041, 25.2380,116.4856
1489428118.0392150879,1489428118.0416150093, -1.3132,  0.0474, -0.0308,  7.9041, 25.2380,115.3564
1489428118.0416920185,1489428118.0439760685, -1.3154,  0.0000, -0.0308,  8.8348, 27.3132,115.3564
1489428118.0440530777,1489428118.0463309288, -1.3154,  0.0000, -0.0308,  8.8348, 27.3132,115.3564
1489428118.0464069843,1489428118.0486929417, -1.3154,  0.0000, -0.0308,  8.8348, 27.3132,115.3564
1489428118.0487699509,1489428118.0510530472, -1.3154,  0.0000, -0.0308,  8.8348, 27.3132,115.3564
1489428118.0511291027,1489428118.0534079075, -1.3154,  0.0000, -0.0308,  9.6893, 28.7933,113.7390
1489428118.0534830093,1489428118.0557639599, -1.3154,  0.0000, -0.0308,  9.6893, 28.7933,113.7390
1489428118.0558400154,1489428118.0581190586, -1.3154,  0.0000, -0.0308,  9.6893, 28.7933,113.7390
1489428118.0581939220,1489428118.0604760647, -1.3154,  0.0000, -0.0308,  9.6893, 28.7933,113.7390
1489428118.0605509281,1489428118.0629758835, -1.3154,  0.0000, -0.0068,  9.6893, 28.7933,111.6791
1489428118.0630540848,1489428118.0654621124, -1.3125, -0.0293, -0.0068, 12.1307, 29.6631,111.6791
1489428118.0655429363,1489428118.0679440498, -1.3125, -0.0293, -0.0068, 12.1307, 29.6631,111.6791
1489428118.0680239201,1489428118.0704269409, -1.3125, -0.0293, -0.0068, 12.1307, 29.6631,111.6791
1489428118.0705080032,1489428118.0729570389, -1.3125, -0.0293, -0.0068, 12.1307, 29.6631,111.6791
1489428118.0730369091,1489428118.0754458904, -1.3125, -0.0293, -0.0068, 13.7939, 29.6936,109.1766
1489428118.0756359100,1489428118.0780470371, -1.3125, -0.0293, -0.0068, 13.7939, 29.6936,109.1766
1489428118.0781259537,1489428118.0805299282, -1.3125, -0.0293, -0.0068, 13.7939, 29.6936,109.1766
1489428118.0806100368,1489428118.0830290318, -1.3125, -0.0293, -0.0081, 13.7939, 29.6936,109.1766
1489428118.0831100941,1489428118.0855150223, -1.2910, -0.0066, -0.0081, 15.8234, 30.1361,105.6976
1489428118.0855970383,1489428118.0880000591, -1.2910, -0.0066, -0.0081, 15.8234, 30.1361,105.6976
1489428118.0880799294,1489428118.0904829502, -1.2910, -0.0066, -0.0081, 15.8234, 30.1361,105.6976
1489428118.0905640125,1489428118.0928790569, -1.2910, -0.0066, -0.0081, 15.8234, 30.1361,105.6976
1489428118.0929598808,1489428118.0952429771, -1.2910, -0.0066, -0.0081, 17.3950, 30.4260,102.1576
1489428118.0953230858,1489428118.0976049900, -1.2910, -0.0066, -0.0081, 17.3950, 30.4260,102.1576
1489428118.0976850986,1489428118.0999701023, -1.2910, -0.0066, -0.0081, 17.3950, 30.4260,102.1576
1489428118.1000509262,1489428118.1024179459, -1.2910, -0.0066, -0.0081, 17.3950, 30.4260,102.1576
1489428118.1024990082,1489428118.1048879623, -1.2458,  0.0085, -0.0098, 17.3950, 30.4260, 98.2513
1489428118.1049680710,1489428118.1073598862, -1.2458,  0.0085, -0.0098, 18.3258, 30.7007, 98.3887
1489428118.1074409485,1489428118.1098229885, -1.2458,  0.0085, -0.0098, 18.3258, 30.7007, 98.3887
1489428118.1099040508,1489428118.1123259068, -1.2458,  0.0085, -0.0098, 18.3258, 30.7007, 98.3887
1489428118.1124079227,1489428118.1147708893, -1.2458,  0.0085, -0.0098, 18.3258, 30.7007, 98.3887
1489428118.1148509979,1489428118.1172161102, -1.2458,  0.0085, -0.0098, 19.1956, 31.2347, 94.4672
1489428118.1172950268,1489428118.1196529865, -1.2458,  0.0085, -0.0098, 19.1956, 31.2347, 94.4672
1489428118.1197340488,1489428118.1222059727, -1.2458,  0.0085, -0.0098, 19.1956, 31.2347, 94.4672
1489428118.1222870350,1489428118.1246929169, -1.2161, -0.0398, -0.0459, 19.1956, 31.2347, 94.4672
1489428118.1247720718,1489428118.1271760464, -1.2161, -0.0398, -0.0459, 21.3318, 31.8451, 89.5691
1489428118.1272559166,1489428118.1296579838, -1.2161, -0.0398, -0.0459, 21.3318, 31.8451, 89.5691
1489428118.1297380924,1489428118.1321539879, -1.2161, -0.0398, -0.0459, 21.3318, 31.8451, 89.5691
1489428118.1322340965,1489428118.1346399784, -1.2161, -0.0398, -0.0459, 21.3318, 31.8451, 89.5691
1489428118.1347188950,1489428118.1371250153, -1.2161, -0.0398, -0.0459, 21.3318, 31.8451, 83.5724
1489428118.1372039318,1489428118.1396110058, -1.2161, -0.0398, -0.0459, 24.4751, 32.7454, 83.5724
1489428118.1396899223,1489428118.1420769691, -1.2161, -0.0398, -0.0459, 24.4751, 32.7454, 83.5724
1489428118.1421558857,1489428118.1444330215, -1.1833, -0.1199, -0.0547, 24.4751, 32.7454, 83.5724
1489428118.1445119381,1489428118.1467940807, -1.1833, -0.1199, -0.0547, 24.4751, 32.7454, 83.5724
1489428118.1468739510,1489428118.1491549015, -1.1833, -0.1199, -0.0547, 23.8342, 33.0353, 76.2787
1489428118.1492350101,1489428118.1515910625, -1.1833, -0.1199, -0.0547, 23.8342, 33.0353, 76.2787
1489428118.1516709328,1489428118.1540739536, -1.1833, -0.1199, -0.0547, 23.8342, 33.0353, 76.2787
1489428118.1541540623,1489428118.1565558910, -1.1833, -0.1199, -0.0547, 23.8342, 33.0353, 76.2787
1489428118.1566359997,1489428118.1590440273, -1.1833, -0.1199, -0.0547, 21.1182, 32.2876, 70.1904
1489428118.1591260433,1489428118.1615729332, -1.1833, -0.1199, -0.0547, 21.1182, 32.2876, 70.1904
1489428118.1616520882,1489428118.1640529633, -1.1443, -0.1865,  0.0078, 21.1182, 32.2876, 70.1904
1489428118.1641340256,1489428118.1665360928, -1.1443, -0.1865,  0.0078, 21.1182, 32.2876, 70.1904
1489428118.1666169167,1489428118.1690220833, -1.1443, -0.1865,  0.0078, 21.1182, 30.4718, 64.9109
1489428118.1691019535,1489428118.1715579033, -1.1443, -0.1865,  0.0078, 16.1438, 30.4718, 64.9109
1489428118.1716389656,1489428118.1740479469, -1.1443, -0.1865,  0.0078, 16.1438, 30.4718, 64.9109
1489428118.1741280556,1489428118.1765370369, -1.1443, -0.1865,  0.0078, 16.1438, 30.4718, 64.9109
1489428118.1767189503,1489428118.1791300774, -1.1443, -0.1865,  0.0078, 16.1438, 30.4718, 58.5327
1489428118.1792099476,1489428118.1816170216, -1.1443, -0.1865,  0.0078, 12.5732, 27.9846, 58.5327
1489428118.1816959381,1489428118.1841020584, -1.0959, -0.1440,  0.0457, 12.5732, 27.9846, 58.5327
1489428118.1841819286,1489428118.1865839958, -1.0959, -0.1440,  0.0457, 12.5732, 27.9846, 58.5327
1489428118.1866629124,1489428118.1890659332, -1.0959, -0.1440,  0.0457, 12.5732, 27.9846, 58.5327
1489428118.1891450882,1489428118.1915299892, -1.0959, -0.1440,  0.0457,  9.2621, 24.5209, 53.5736
1489428118.1916079521,1489428118.1938929558, -1.0959, -0.1440,  0.0457,  9.2621, 24.5209, 53.5736
1489428118.1939699650,1489428118.1962571144, -1.0959, -0.1440,  0.0457,  9.2621, 24.5209, 53.5736
1489428118.1963350773,1489428118.1986200809, -1.0959, -0.1440,  0.0457,  9.2621, 24.5209, 53.5736
1489428118.1986980438,1489428118.2010860443, -1.0959, -0.1440,  0.0457,  7.3547, 22.9492, 48.2941
1489428118.2011721134,1489428118.2035770416, -1.0959,  0.0000, -0.0039,  7.3547, 22.9492, 48.2941
1489428118.2036540508,1489428118.2060470581, -1.0598,  0.0000, -0.0039,  7.3547, 22.9492, 48.2941
1489428118.2061231136,1489428118.2085139751, -1.0598,  0.0000, -0.0039,  7.3547, 22.9492, 48.2941
1489428118.2085900307,1489428118.2109889984, -1.0598,  0.0000, -0.0039,  7.3547, 22.9492, 42.4957
1489428118.2110650539,1489428118.2134521008, -1.0598,  0.0000, -0.0039,  8.0414, 22.5372, 42.4957
1489428118.2135291100,1489428118.2159199715, -1.0598,  0.0000, -0.0039,  8.0414, 22.5372, 42.4957
1489428118.2159979343,1489428118.2183918953, -1.0598,  0.0000, -0.0039,  8.0414, 22.5372, 42.4957
1489428118.2184679508,1489428118.2208559513, -1.0598,  0.0000, -0.0039,  8.0414, 22.5372, 42.4957
1489428118.2209849358,1489428118.2233760357, -1.0598,  0.0000,  0.0146, 10.5591, 23.1171, 36.8042
1489428118.2234549522,1489428118.2258470058, -1.0037,  0.0420,  0.0146, 10.5591, 23.1171, 36.8042
1489428118.2259259224,1489428118.2283160686, -1.0037,  0.0420,  0.0146, 10.5591, 23.1171, 36.8042
1489428118.2283959389,1489428118.2307898998, -1.0037,  0.0420,  0.0146, 10.5591, 23.1171, 36.8042
1489428118.2308700085,1489428118.2332630157, -1.0037,  0.0420,  0.0146, 13.7024, 23.6511, 30.8380
1489428118.2333419323,1489428118.2357330322, -1.0037,  0.0420,  0.0146, 13.7024, 23.6511, 30.8380
1489428118.2358129025,1489428118.2382009029, -1.0037,  0.0420,  0.0146, 13.7024, 23.6511, 30.8380
1489428118.2382810116,1489428118.2406780720, -1.0037,  0.0420,  0.0146, 13.7024, 23.6511, 30.8380
1489428118.2407569885,1489428118.2431569099, -1.0037,  0.0420,  0.1489, 17.6086, 21.4386, 23.5901
1489428118.2432360649,1489428118.2456259727, -1.0447, -0.0461,  0.1489, 17.6392, 21.4386, 23.5901
1489428118.2457048893,1489428118.2480950356, -1.0447, -0.0461,  0.1489, 17.6392, 21.4386, 23.5901
1489428118.2481749058,1489428118.2505660057, -1.0447, -0.0461,  0.1489, 17.6392, 21.4386, 23.5901
1489428118.2506461143,1489428118.2530469894, -1.0447, -0.0461,  0.1489, 17.6392, 21.4386, 15.3046
1489428118.2531270981,1489428118.2555179596, -1.0447, -0.0461,  0.1489, 15.6860, 17.7460, 15.3046
1489428118.2555980682,1489428118.2579889297, -1.0447, -0.0461,  0.1489, 15.6860, 17.7460, 15.3046
1489428118.2580690384,1489428118.2604560852, -1.0447, -0.0461,  0.1489, 15.6860, 17.7460, 15.3046
1489428118.2605350018,1489428118.2629389763, -1.0447, -0.0461,  0.2114, 15.6860, 17.7460, 15.3046
1489428118.2630190849,1489428118.2654099464, -1.0681, -0.0154,  0.2129,  5.8899, 13.5803,  7.3853
1489428118.2654840946,1489428118.2678771019, -1.0681, -0.0154,  0.2129,  5.8899, 13.5803,  7.3853
1489428118.2679500580,1489428118.2703480721, -1.0681, -0.0154,  0.2129,  5.8899, 13.5803,  7.3853
1489428118.2704229355,1489428118.2728259563, -1.0681, -0.0154,  0.2129,  5.8899, 13.5803,  7.3853
1489428118.2728989124,1489428118.2752900124, -1.0681, -0.0154,  0.2129,-10.9100, 10.0403, -1.4496
1489428118.2753670216,1489428118.2777569294, -1.0681, -0.0154,  0.2129,-10.9100, 10.0403, -1.4496
1489428118.2778339386,1489428118.2802200317, -1.0681, -0.0154,  0.2129,-10.9100, 10.0403, -1.4496
1489428118.2804028988,1489428118.2828099728, -1.0681, -0.0154,  0.2129,-10.9100, 10.0403, -1.4496
1489428118.2828869820,1489428118.2852840424, -1.0779, -0.0142,  0.2109,-10.9100,  6.8359, -9.4910
1489428118.2853589058,1489428118.2877519131, -1.0779, -0.0142,  0.2109,-30.1666,  6.8359, -9.4910
1489428118.2878270149,1489428118.2902169228, -1.0779, -0.0142,  0.2109,-30.1666,  6.8359, -9.4910
1489428118.2902920246,1489428118.2927451134, -1.0779, -0.0142,  0.2109,-30.1666,  6.8359, -9.4910
1489428118.2928199768,1489428118.2952129841, -1.0779, -0.0142,  0.2109,-30.1666,  6.8359,-16.9830
1489428118.2952909470,1489428118.2976810932, -1.0779, -0.0142,  0.2109,-50.5829,  3.4637,-16.9830
1489428118.2977581024,1489428118.3001480103, -1.0779, -0.0142,  0.2109,-50.5829,  3.4637,-16.9830
1489428118.3002259731,1489428118.3026399612, -1.0779, -0.0142,  0.2109,-50.5829,  3.4637,-16.9830
1489428118.3027169704,1489428118.3051149845, -1.0906, -0.1768,  0.1345,-50.5829,  3.4637,-16.9830
1489428118.3051910400,1489428118.3075919151, -1.0906, -0.1768,  0.1345,-61.9049,  2.1973,-26.2604
1489428118.3076701164,1489428118.3100740910, -1.0906, -0.1768,  0.1345,-61.9049,  2.1973,-26.2604
1489428118.3101511002,1489428118.3125619888, -1.0906, -0.1768,  0.1345,-61.9049,  2.1973,-26.2604
1489428118.3126389980,1489428118.3150439262, -1.0906, -0.1768,  0.1345,-61.9049,  2.1973,-26.2604
1489428118.3151209354,1489428118.3175239563, -1.0906, -0.1768,  0.1345,-57.5867,  2.5787,-34.7595
1489428118.3176009655,1489428118.3200099468, -1.0906, -0.1768,  0.1345,-57.5867,  2.5787,-34.7595
1489428118.3200879097,1489428118.3225359917, -1.0906, -0.1768,  0.1345,-57.5867,  2.5787,-34.7595
1489428118.3226120472,1489428118.3250129223, -1.1401,  0.0029,  0.0312,-57.5867,  2.5787,-34.7595
1489428118.3250908852,1489428118.3274919987, -1.1401,  0.0029,  0.0312,-57.5867,  1.1292,-43.5944
1489428118.3275699615,1489428118.3299739361, -1.1401,  0.0029,  0.0312,-45.4865,  1.1292,-43.5944
1489428118.3300509453,1489428118.3324580193, -1.1401,  0.0029,  0.0312,-45.4865,  1.1292,-43.5944
1489428118.3325350285,1489428118.3349370956, -1.1401,  0.0029,  0.0312,-45.4865,  1.1292,-43.5944
1489428118.3350150585,1489428118.3374180794, -1.1401,  0.0029,  0.0312,-45.4865,  1.1292,-43.5944
1489428118.3374950886,1489428118.3398969173, -1.1401,  0.0029,  0.0312,-33.1116,  0.3815,-44.1132
1489428118.3399760723,1489428118.3423209190, -1.1401,  0.0029,  0.0312,-33.1116,  0.3815,-44.1132
1489428118.3423988819,1489428118.3446791172, -1.1042,  0.8303, -0.1438,-33.1116,  0.3815,-44.1132
1489428118.3447549343,1489428118.3470380306, -1.1042,  0.8303, -0.1438,-33.1116,  0.3815,-44.1132
1489428118.3471140862,1489428118.3493990898, -1.1042,  0.8303, -0.1438,-16.6168,  1.3428,-39.1541
1489428118.3494749069,1489428118.3518140316, -1.1042,  0.8303, -0.1438,-16.6168,  1.3428,-39.1541
1489428118.3518900871,1489428118.3542931080, -1.1042,  0.8303, -0.1438,-16.6168,  1.3428,-39.1541
1489428118.3543701172,1489428118.3567709923, -1.1042,  0.8303, -0.1438,-16.6168,  1.3428,-39.1541
1489428118.3568480015,1489428118.3592500687, -1.1042,  0.8303, -0.1438,-16.6168,  3.4637,-28.2745
1489428118.3593258858,1489428118.3617439270, -1.1042,  0.8303, -0.1438,  3.7384,  3.4637,-28.2745
1489428118.3618180752,1489428118.3642189503, -1.0510,  2.1555, -0.2527,  3.7384,  3.4637,-28.2745
1489428118.3642919064,1489428118.3666949272, -1.0510,  2.1555, -0.2527,  3.7384,  3.4637,-28.2745
1489428118.3667669296,1489428118.3691680431, -1.0510,  2.1555, -0.2527,  3.7384,  3.4637,-12.6495
1489428118.3692390919,1489428118.3716449738, -1.0510,  2.1555, -0.2527, 22.7661,  6.7596,-12.5885
1489428118.3717210293,1489428118.3741230965, -1.0510,  2.1555, -0.2527, 22.7661,  6.7596,-12.5885
1489428118.3741979599,1489428118.3766050339, -1.0510,  2.1555, -0.2527, 22.7661,  6.7596,-12.5885
1489428118.3766798973,1489428118.3790819645, -1.0510,  2.1555, -0.2527, 22.7661,  6.7596,-12.5885
1489428118.3791570663,1489428118.3815751076, -1.0510,  2.1555, -0.2527, 21.6064,  8.7128, -9.4452
1489428118.3816499710,1489428118.3840589523, -1.4885,  0.1104,  0.2688, 21.6064,  8.7128, -9.4452
1489428118.3842430115,1489428118.3866529465, -1.4993,  0.1104,  0.2688, 21.6064,  8.7128, -9.4452
1489428118.3867280483,1489428118.3891389370, -1.4993,  0.1104,  0.2688, 21.6064,  8.7128, -9.4452
1489428118.3892130852,1489428118.3916039467, -1.4993,  0.1104,  0.2688,  8.6212, -1.9531,-31.1737
1489428118.3916780949,1489428118.3939580917, -1.4993,  0.1104,  0.2688,  8.6212, -1.9531,-31.1737
1489428118.3940320015,1489428118.3963110447, -1.4993,  0.1104,  0.2688,  8.6212, -1.9531,-31.1737
1489428118.3963849545,1489428118.3986659050, -1.4993,  0.1104,  0.2688,  8.6212, -1.9531,-31.1737
1489428118.3987390995,1489428118.4010329247, -1.4993,  0.1104,  0.2688,  8.6212, -1.9531,-54.9927
1489428118.4011070728,1489428118.4035129547, -1.4993,  0.0479, -0.0681, 18.8751, -5.0354,-54.9927
1489428118.4035909176,1489428118.4059989452, -1.4077,  0.0120, -0.0681, 18.8751, -5.0354,-54.9927
1489428118.4060759544,1489428118.4084839821, -1.4077,  0.0120, -0.0681, 18.8751, -5.0354,-54.9927
1489428118.4085609913,1489428118.4109740257, -1.4077,  0.0120, -0.0681, 18.8751, -5.0354,-54.9927
1489428118.4110500813,1489428118.4134800434, -1.4077,  0.0120, -0.0681, 32.8369, -4.3182,-63.1409
1489428118.4135570526,1489428118.4159619808, -1.4077,  0.0120, -0.0681, 32.8369, -4.3182,-63.1409
1489428118.4160389900,1489428118.4184451103, -1.4077,  0.0120, -0.0681, 32.8369, -4.3182,-63.1409
1489428118.4185209274,1489428118.4209411144, -1.4077,  0.0120, -0.0681, 32.8369, -4.3182,-63.1409
1489428118.4210178852,1489428118.4234220982, -1.4077,  0.0120, -0.1677, 26.8707, -4.6082,-63.5223
1489428118.4235000610,1489428118.4258980751, -1.1936,  0.4458, -0.1677, 26.8707, -4.6082,-63.5223
1489428118.4259750843,1489428118.4283790588, -1.1936,  0.4458, -0.1677, 26.8707, -4.6082,-63.5223
1489428118.4284560680,1489428118.4308578968, -1.1936,  0.4458, -0.1677, 26.8707, -4.6082,-63.5223
1489428118.4309849739,1489428118.4333810806, -1.1936,  0.4458, -0.1677,  7.3395, -2.2736,-66.0858
1489428118.4334530830,1489428118.4358599186, -1.1936,  0.4458, -0.1677,  7.7209, -2.2736,-66.0858
1489428118.4359340668,1489428118.4383409023, -1.1936,  0.4458, -0.1677,  7.7209, -2.2736,-66.0858
1489428118.4384150505,1489428118.4408199787, -1.1936,  0.4458, -0.1677,  7.7209, -2.2736,-66.0858
1489428118.4408919811,1489428118.4432330132, -1.1936,  0.4458, -0.1819,  7.7209, -2.2736,-68.5730
1489428118.4433069229,1489428118.4455850124, -1.3171,  0.1841, -0.1819,-10.8337, -0.4883,-68.5730
1489428118.4456620216,1489428118.4479451180, -1.3171,  0.1841, -0.1819,-10.8337, -0.4883,-68.5730
1489428118.4480218887,1489428118.4503049850, -1.3171,  0.1841, -0.1819,-10.8337, -0.4883,-68.5730
1489428118.4503810406,1489428118.4527819157, -1.3171,  0.1841, -0.1819,-10.8337, -0.4883,-68.5730
1489428118.4528589249,1489428118.4552628994, -1.3171,  0.1841, -0.1819,-23.8800,  2.2888,-70.2972
1489428118.4553389549,1489428118.4577479362, -1.3171,  0.1841, -0.1819,-23.8800,  2.2888,-70.2972
1489428118.4578239918,1489428118.4602270126, -1.3171,  0.1841, -0.1819,-23.8800,  2.2888,-70.2972
1489428118.4603040218,1489428118.4627499580, -1.3171,  0.1841, -0.1819,-23.8800,  2.2888,-70.2972
1489428118.4628269672,1489428118.4652299881, -1.2288,  0.1843, -0.2263,-31.7535,  3.3417,-69.4885
1489428118.4653060436,1489428118.4677090645, -1.2288,  0.1843, -0.2263,-31.7535,  3.3417,-69.4885
1489428118.4677860737,1489428118.4701890945, -1.2288,  0.1843, -0.2263,-31.7535,  3.3417,-69.4885
1489428118.4702649117,1489428118.4726719856, -1.2288,  0.1843, -0.2263,-31.7535,  3.3417,-69.4885
1489428118.4727489948,1489428118.4751570225, -1.2288,  0.1843, -0.2263,-31.7535,  3.3417,-68.6035
1489428118.4752330780,1489428118.4776411057, -1.2288,  0.1843, -0.2263,-39.1846,  3.1281,-68.6035
1489428118.4777190685,1489428118.4801220894, -1.2288,  0.1843, -0.2263,-39.1846,  3.1281,-68.6035
1489428118.4801990986,1489428118.4826200008, -1.2288,  0.1843, -0.2263,-39.1846,  3.1281,-68.6035
1489428118.4826970100,1489428118.4850990772, -1.1487,  0.0283, -0.1025,-39.1846,  3.1281,-68.6035
1489428118.4851770401,1489428118.4875829220, -1.1487,  0.0283, -0.1025,-40.3442,  2.9297,-68.8477
1489428118.4877719879,1489428118.4901809692, -1.1487,  0.0283, -0.1025,-40.3442,  2.9297,-68.8477
1489428118.4902570248,1489428118.4925820827, -1.1487,  0.0283, -0.1025,-40.3442,  2.9297,-68.8477
1489428118.4926590919,1489428118.4949409962, -1.1487,  0.0283, -0.1025,-40.3442,  2.9297,-68.8477
1489428118.4950170517,1489428118.4973020554, -1.1487,  0.0283, -0.1025,-33.0658,  2.8076,-66.8945
1489428118.4973790646,1489428118.4996631145, -1.1487,  0.0283, -0.1025,-33.0658,  2.8076,-66.8945
1489428118.4997398853,1489428118.5021340847, -1.1487,  0.0283, -0.1025,-33.0658,  2.8076,-66.8945
1489428118.5022110939,1489428118.5046141148, -1.1301,  0.1443, -0.0708,-33.0658,  2.8076,-66.8945
1489428118.5046908855,1489428118.5070979595, -1.1301,  0.1443, -0.0708,-33.0658,  2.8076,-63.8885
1489428118.5071740150,1489428118.5095798969, -1.1301,  0.1443, -0.0708,-24.4446,  3.0518,-63.8885
1489428118.5096559525,1489428118.5120630264, -1.1301,  0.1443, -0.0708,-24.4446,  3.0518,-63.8885
1489428118.5121409893,1489428118.5145440102, -1.1301,  0.1443, -0.0708,-24.4446,  3.0518,-63.8885
1489428118.5146210194,1489428118.5170190334, -1.1301,  0.1443, -0.0708,-24.4446,  3.0518,-59.9823
1489428118.5170950890,1489428118.5194940567, -1.1301,  0.1443, -0.0708,-18.1274,  3.0212,-60.6232
1489428118.5195701122,1489428118.5219860077, -1.1301,  0.1443, -0.0708,-18.1274,  3.0212,-60.6232
1489428118.5220630169,1489428118.5244669914, -1.1077,  0.1575, -0.0786,-18.1274,  3.0212,-60.6232
1489428118.5245430470,1489428118.5269498825, -1.1077,  0.1575, -0.0786,-18.1274,  3.0212,-60.6232
1489428118.5270268917,1489428118.5294249058, -1.1077,  0.1575, -0.0786,-11.3525,  3.3417,-55.6183
1489428118.5295009613,1489428118.5319519043, -1.1077,  0.1575, -0.0786,-11.3525,  3.3417,-55.6183
1489428118.5320289135,1489428118.5344300270, -1.1077,  0.1575, -0.0786,-11.3525,  3.3417,-55.6183
1489428118.5345070362,1489428118.5369091034, -1.1077,  0.1575, -0.0786,-11.3525,  3.3417,-55.6183
1489428118.5369849205,1489428118.5393879414, -1.1077,  0.1575, -0.0786, -7.6599,  3.6316,-50.2167
1489428118.5394608974,1489428118.5418200493, -1.1077,  0.1575, -0.0786, -7.6599,  3.6316,-50.2167
1489428118.5418930054,1489428118.5441699028, -1.1035,  0.1306, -0.0574, -7.6599,  3.6316,-50.2167
1489428118.5442440510,1489428118.5465240479, -1.1035,  0.1306, -0.0574, -7.6599,  3.6316,-50.2167
1489428118.5465979576,1489428118.5488820076, -1.1035,  0.1306, -0.0574, -7.6599,  3.6316,-46.2036
1489428118.5489559174,1489428118.5512619019, -1.1035,  0.1306, -0.0574, -6.2714,  4.7302,-46.2036
1489428118.5513350964,1489428118.5537409782, -1.1035,  0.1306, -0.0574, -6.2714,  4.7302,-46.2036
1489428118.5538148880,1489428118.5562191010, -1.1035,  0.1306, -0.0574, -6.2714,  4.7302,-46.2036
1489428118.5562939644,1489428118.5587050915, -1.1035,  0.1306, -0.0574, -6.2714,  4.7302,-46.2036
1489428118.5587780476,1489428118.5611939430, -1.1035,  0.1306, -0.0574, -4.4556,  6.6071,-42.8925
1489428118.5612680912,1489428118.5636739731, -1.1035,  0.1306,  0.0183, -4.4556,  6.6071,-42.8925
1489428118.5637478828,1489428118.5661549568, -1.1101,  0.1687,  0.0183, -4.4556,  6.6071,-42.8925
1489428118.5662291050,1489428118.5686299801, -1.1101,  0.1687,  0.0183, -4.4556,  6.6071,-42.8925
1489428118.5687038898,1489428118.5711770058, -1.1101,  0.1687,  0.0183, -5.4626,  8.4991,-40.9851
1489428118.5712509155,1489428118.5736579895, -1.1101,  0.1687,  0.0183, -5.4626,  8.4991,-40.9851
1489428118.5737309456,1489428118.5761311054, -1.1101,  0.1687,  0.0183, -5.4626,  8.4991,-40.9851
1489428118.5762050152,1489428118.5786080360, -1.1101,  0.1687,  0.0183, -5.4626,  8.4991,-40.9851
1489428118.5786819458,1489428118.5811359882, -1.1101,  0.1687,  0.0183, -5.4626,  8.4991,-38.9099
1489428118.5812089443,1489428118.5836091042, -1.1101,  0.1687, -0.0088, -6.6986, 10.3760,-38.9099
1489428118.5836880207,1489428118.5860910416, -1.1277,  0.1719, -0.0088, -6.6986, 10.3760,-38.9099
1489428118.5861690044,1489428118.5885739326, -1.1277,  0.1719, -0.0088, -6.6986, 10.3760,-38.9099
1489428118.5886509418,1489428118.5910511017, -1.1277,  0.1719, -0.0088, -6.6986, 10.3760,-38.9099
1489428118.5912361145,1489428118.5935249329, -1.1277,  0.1719, -0.0088, -6.2256, 12.1613,-36.6974
1489428118.5936019421,1489428118.5958828926, -1.1277,  0.1719, -0.0088, -6.2256, 12.1613,-36.6974
1489428118.5959610939,1489428118.5982420444, -1.1277,  0.1719, -0.0088, -6.2256, 12.1613,-36.6974
1489428118.5983190536,1489428118.6006050110, -1.1277,  0.1719, -0.0088, -6.2256, 12.1613,-36.6974
1489428118.6006839275,1489428118.6031219959, -1.1277,  0.1719, -0.0088, -6.3629, 14.6332,-34.3018
1489428118.6031999588,1489428118.6056060791, -1.1084,  0.1687, -0.0627, -6.3629, 14.6332,-34.3018
1489428118.6056830883,1489428118.6080899239, -1.1084,  0.1687, -0.0627, -6.3629, 14.6332,-34.3018
1489428118.6081669331,1489428118.6105699539, -1.1084,  0.1687, -0.0627, -6.3629, 14.6332,-34.3018
1489428118.6106469631,1489428118.6130568981, -1.1084,  0.1687, -0.0627,-10.2692, 16.0370,-32.6691
1489428118.6131370068,1489428118.6155369282, -1.1084,  0.1687, -0.0627, -8.0261, 16.0370,-32.6691
1489428118.6156148911,1489428118.6180210114, -1.1084,  0.1687, -0.0627, -8.0261, 16.0370,-32.6691
1489428118.6180989742,1489428118.6205070019, -1.1084,  0.1687, -0.0627, -8.0261, 16.0370,-32.6691
1489428118.6205840111,1489428118.6229999065, -1.1084,  0.1687, -0.0627, -8.0261, 16.0370,-31.5247
1489428118.6230781078,1489428118.6254839897, -1.1431,  0.1462, -0.1184, -9.5062, 16.2964,-31.5247
1489428118.6255619526,1489428118.6279630661, -1.1431,  0.1462, -0.1184, -9.5062, 16.2964,-31.5247
1489428118.6280410290,1489428118.6304509640, -1.1431,  0.1462, -0.1184, -9.5062, 16.2964,-31.5247
1489428118.6305279732,1489428118.6329450607, -1.1431,  0.1462, -0.1184, -9.5062, 16.2964,-31.5247
1489428118.6330220699,1489428118.6354300976, -1.1431,  0.1462, -0.1184, -8.1635, 14.5111,-28.5187
1489428118.6355080605,1489428118.6379120350, -1.1431,  0.1462, -0.1184, -8.1635, 14.5111,-28.5187
1489428118.6379899979,1489428118.6403970718, -1.1431,  0.1462, -0.1184, -8.1635, 14.5111,-28.5187
1489428118.6404750347,1489428118.6427810192, -1.1431,  0.1462, -0.1184, -8.1635, 14.5111,-28.5187
1489428118.6428589821,1489428118.6451408863, -1.1406,  0.1865, -0.1414, -3.8757, 13.1989,-26.4435
1489428118.6452159882,1489428118.6474928856, -1.1406,  0.1865, -0.1414, -3.8757, 13.1989,-26.4435
1489428118.6475689411,1489428118.6498520374, -1.1406,  0.1865, -0.1414, -3.8757, 13.1989,-26.4435
1489428118.6499269009,1489428118.6522860527, -1.1406,  0.1865, -0.1414, -3.8757, 13.1989,-26.4435
1489428118.6523621082,1489428118.6547639370, -1.1406,  0.1865, -0.1414, -3.8757, 13.1989,-25.6958
1489428118.6548399925,1489428118.6572430134, -1.1406,  0.1865, -0.1414, -0.9613, 12.4817,-25.6958
1489428118.6573190689,1489428118.6597299576, -1.1406,  0.1865, -0.1414, -0.9613, 12.4817,-25.6958
1489428118.6598069668,1489428118.6622490883, -1.1406,  0.1865, -0.1414, -0.9613, 12.4817,-25.6958
1489428118.6623270512,1489428118.6647338867, -1.1226,  0.2056, -0.2219, -0.9613, 12.4817,-25.6958
1489428118.6648099422,1489428118.6672120094, -1.1226,  0.2056, -0.2219,  1.0071, 11.5204,-24.4751
1489428118.6672880650,1489428118.6696848869, -1.1226,  0.2056, -0.2219,  1.0071, 11.5204,-24.4751
1489428118.6697618961,1489428118.6721749306, -1.1226,  0.2056, -0.2219,  1.0071, 11.5204,-24.4751
1489428118.6722519398,1489428118.6746590137, -1.1226,  0.2056, -0.2219,  1.0071, 11.5204,-24.4751
1489428118.6747360229,1489428118.6771399975, -1.1226,  0.2056, -0.2219,  1.8158, 10.5743,-23.7122
1489428118.6772160530,1489428118.6796240807, -1.1226,  0.2056, -0.2219,  1.8158, 10.5743,-23.7122
1489428118.6797010899,1489428118.6821548939, -1.1226,  0.2056, -0.2219,  1.8158, 10.5743,-23.7122
1489428118.6822319031,1489428118.6846380234, -1.1199,  0.1763, -0.2195,  1.8158, 10.5743,-23.7122
1489428118.6847140789,1489428118.6871180534, -1.1199,  0.1763, -0.2195,  1.8158,  9.2773,-23.3612
1489428118.6871910095,1489428118.6895940304, -1.1199,  0.1763, -0.2195,  1.1292,  9.2773,-23.3612
1489428118.6896679401,1489428118.6920330524, -1.1199,  0.1763, -0.2195,  1.1292,  9.2773,-23.3612
1489428118.6922109127,1489428118.6944949627, -1.1199,  0.1763, -0.2195,  1.1292,  9.2773,-23.3612
1489428118.6945691109,1489428118.6968441010, -1.1199,  0.1763, -0.2195,  1.1292,  9.2773,-22.9340
1489428118.6969189644,1489428118.6992020607, -1.1199,  0.1763, -0.2195, -1.8463,  7.2784,-22.9340
1489428118.6992759705,1489428118.7016050816, -1.1199,  0.1763, -0.2195, -1.8463,  7.2784,-22.9340
1489428118.7016780376,1489428118.7040820122, -1.1199,  0.1416, -0.1323, -1.8463,  7.2784,-22.9340
1489428118.7041549683,1489428118.7065598965, -1.1387,  0.1416, -0.1323, -1.8463,  7.2784,-22.9340
1489428118.7066318989,1489428118.7090320587, -1.1387,  0.1416, -0.1323, -7.1259,  6.9427,-23.0560
1489428118.7091050148,1489428118.7115530968, -1.1387,  0.1416, -0.1323, -7.1259,  6.9427,-23.0560
1489428118.7116270065,1489428118.7140300274, -1.1387,  0.1416, -0.1323, -7.1259,  6.9427,-23.0560
1489428118.7141039371,1489428118.7165079117, -1.1387,  0.1416, -0.1323, -7.1259,  6.9427,-23.0560
1489428118.7165811062,1489428118.7189829350, -1.1387,  0.1416, -0.1323, -8.0566,  8.1482,-22.9950
1489428118.7190580368,1489428118.7214670181, -1.1387,  0.1416, -0.1323, -8.0566,  8.1482,-22.9950
1489428118.7215418816,1489428118.7239420414, -1.1387,  0.1416, -0.1389, -8.0566,  8.1482,-22.9950
1489428118.7240149975,1489428118.7264230251, -1.1208,  0.1709, -0.1389, -8.0566,  8.1482,-22.9950
1489428118.7264978886,1489428118.7289040089, -1.1208,  0.1709, -0.1389, -8.0566,  8.1482,-22.7661
1489428118.7289779186,1489428118.7313909531, -1.1208,  0.1709, -0.1389, -5.7983,  9.4910,-22.7661
1489428118.7314660549,1489428118.7338650227, -1.1208,  0.1709, -0.1389, -5.7983,  9.4910,-22.7661
1489428118.7339398861,1489428118.7363469601, -1.1208,  0.1709, -0.1389, -5.7983,  9.4910,-22.7661
1489428118.7364211082,1489428118.7388260365, -1.1208,  0.1709, -0.1389, -5.7983,  9.4910,-22.7661
1489428118.7388999462,1489428118.7413311005, -1.1208,  0.1709, -0.1389, -2.7161,  9.1248,-23.4985
1489428118.7414050102,1489428118.7436859608, -1.1208,  0.1709, -0.1455, -2.7161,  9.1248,-23.4985
1489428118.7437610626,1489428118.7460429668, -1.1545,  0.1304, -0.1455, -2.7161,  9.1248,-23.4985
1489428118.7461171150,1489428118.7483990192, -1.1545,  0.1304, -0.1455, -2.7161,  9.1248,-23.4985
1489428118.7484719753,1489428118.7507550716, -1.1545,  0.1304, -0.1455,  1.6174,  9.0790,-24.2310
1489428118.7508280277,1489428118.7532370090, -1.1545,  0.1304, -0.1455,  1.6174,  9.0790,-24.2310
1489428118.7533109188,1489428118.7557129860, -1.1545,  0.1304, -0.1455,  1.6174,  9.0790,-24.2310
1489428118.7557868958,1489428118.7581911087, -1.1545,  0.1304, -0.1455,  1.6174,  9.0790,-24.2310
1489428118.7582650185,1489428118.7606730461, -1.1545,  0.1304, -0.1455,  1.6174,  9.0790,-25.3906
1489428118.7607460022,1489428118.7631580830, -1.1545,  0.1304, -0.1455,  5.1727,  7.8125,-25.3906
1489428118.7632310390,1489428118.7656359673, -1.1560,  0.1250, -0.1997,  5.1727,  7.8125,-25.3906
1489428118.7657101154,1489428118.7681169510, -1.1560,  0.1250, -0.1997,  5.1727,  7.8125,-25.3906
1489428118.7681910992,1489428118.7705960274, -1.1560,  0.1250, -0.1997,  5.1727,  7.8125,-25.3906
1489428118.7706689835,1489428118.7730789185, -1.1560,  0.1250, -0.1997,  7.2632,  5.8899,-27.6031
1489428118.7731521130,1489428118.7755599022, -1.1560,  0.1250, -0.1997,  7.2632,  5.8899,-27.6031
1489428118.7756340504,1489428118.7780389786, -1.1560,  0.1250, -0.1997,  7.2632,  5.8899,-27.6031
1489428118.7781119347,1489428118.7805199623, -1.1560,  0.1250, -0.1997,  7.2632,  5.8899,-27.6031
1489428118.7805919647,1489428118.7830040455, -1.1560,  0.1250, -0.1997,  8.7433,  4.0894,-30.0293
1489428118.7830801010,1489428118.7854819298, -1.1318,  0.1194, -0.2603,  8.7433,  4.0894,-30.0293
1489428118.7855570316,1489428118.7879610062, -1.1318,  0.1194, -0.2603,  8.7433,  4.0894,-30.0293
1489428118.7880370617,1489428118.7904400826, -1.1318,  0.1194, -0.2603,  8.7433,  4.0894,-30.0293
1489428118.7905149460,1489428118.7928330898, -1.1318,  0.1194, -0.2603, 11.7493,  2.2888,-30.3497
1489428118.7929110527,1489428118.7951939106, -1.1318,  0.1194, -0.2603, 11.7493,  2.2888,-30.3497
1489428118.7953789234,1489428118.7976660728, -1.1318,  0.1194, -0.2603, 11.7493,  2.2888,-30.3497
1489428118.7977430820,1489428118.8000230789, -1.1318,  0.1194, -0.2603, 11.7493,  2.2888,-30.3497
1489428118.8001000881,1489428118.8023869991, -1.1318,  0.1194, -0.2603, 11.7493,  2.2888,-30.3497
1489428118.8024640083,1489428118.8047459126, -1.1353,  0.0649, -0.1794, 13.3362, -0.7782,-27.5269
1489428118.8048241138,1489428118.8071029186, -1.1353,  0.0649, -0.1794, 13.3362, -0.7782,-27.5269
1489428118.8071799278,1489428118.8094561100, -1.1353,  0.0649, -0.1794, 13.3362, -0.7782,-27.5269
1489428118.8095331192,1489428118.8118789196, -1.1353,  0.0649, -0.1794, 13.3362, -0.7782,-27.5269
1489428118.8119559288,1489428118.8143639565, -1.1353,  0.0649, -0.1794, 13.3362, -3.1128,-27.4506
1489428118.8144409657,1489428118.8168489933, -1.1353,  0.0649, -0.1794, 13.3362, -3.1128,-27.4506
1489428118.8169260025,1489428118.8193318844, -1.1353,  0.0649, -0.1794, 13.3362, -3.1128,-27.4506
1489428118.8194110394,1489428118.8218228817, -1.1353,  0.0649, -0.1794, 13.3362, -3.1128,-27.4506
1489428118.8218998909,1489428118.8243041039, -1.1353,  0.0442, -0.1101, 13.3362, -4.2114,-28.7170
1489428118.8243820667,1489428118.8267879486, -1.1775,  0.0442, -0.1101, 14.8010, -4.2114,-28.7170
1489428118.8268659115,1489428118.8292698860, -1.1775,  0.0442, -0.1101, 14.8010, -4.2114,-28.7170
1489428118.8293468952,1489428118.8317639828, -1.1775,  0.0442, -0.1101, 14.8010, -4.2114,-28.7170
1489428118.8318409920,1489428118.8342390060, -1.1775,  0.0442, -0.1101, 14.8010, -4.2114,-28.7170
1489428118.8343160152,1489428118.8367190361, -1.1775,  0.0442, -0.1101, 16.6016, -3.8300,-29.0070
1489428118.8367979527,1489428118.8392028809, -1.1775,  0.0442, -0.1101, 16.6016, -3.8300,-29.0070
1489428118.8392810822,1489428118.8417320251, -1.1775,  0.0442, -0.1101, 16.6016, -3.8300,-29.0070
1489428118.8418099880,1489428118.8442080021, -1.1775,  0.1819, -0.1482, 16.6016, -3.8300,-29.0070
1489428118.8442840576,1489428118.8466858864, -1.1594,  0.1819, -0.1482, 18.0664, -4.6997,-29.0680
1489428118.8467628956,1489428118.8491699696, -1.1594,  0.1819, -0.1482, 18.0664, -4.6997,-29.0680
1489428118.8492460251,1489428118.8516170979, -1.1594,  0.1819, -0.1482, 18.0664, -4.6997,-29.0680
1489428118.8516929150,1489428118.8539719582, -1.1594,  0.1819, -0.1482, 18.0664, -4.6997,-29.0680
1489428118.8540470600,1489428118.8563280106, -1.1594,  0.1819, -0.1482, 19.5770, -5.2643,-28.1982
1489428118.8564040661,1489428118.8586800098, -1.1594,  0.1819, -0.1482, 19.5770, -5.2643,-28.1982
1489428118.8587560654,1489428118.8610510826, -1.1594,  0.1819, -0.1482, 19.5770, -5.2643,-28.1982
1489428118.8611259460,1489428118.8635349274, -1.1594,  0.1819, -0.2107, 19.5770, -5.2643,-28.1982
1489428118.8636119366,1489428118.8660159111, -1.1086,  0.1909, -0.2017, 19.5770, -5.2643,-26.8860
1489428118.8660929203,1489428118.8684990406, -1.1086,  0.1909, -0.2017, 16.7389, -5.7220,-26.8860
1489428118.8685760498,1489428118.8709928989, -1.1086,  0.1909, -0.2017, 16.7389, -5.7220,-26.8860
1489428118.8710699081,1489428118.8734669685, -1.1086,  0.1909, -0.2017, 16.7389, -5.7220,-26.8860
1489428118.8735430241,1489428118.8759469986, -1.1086,  0.1909, -0.2017, 16.7389, -5.7220,-26.8860
1489428118.8760240078,1489428118.8784289360, -1.1086,  0.1909, -0.2017, 15.7166, -6.0272,-26.1536
1489428118.8785068989,1489428118.8809518814, -1.1086,  0.1909, -0.2017, 15.7166, -6.0272,-26.1536
1489428118.8810288906,1489428118.8834369183, -1.1086,  0.1909, -0.2017, 15.7166, -6.0272,-26.1536
1489428118.8835148811,1489428118.8859210014, -1.1213,  0.0710, -0.1997, 15.7166, -6.0272,-26.1536
1489428118.8859989643,1489428118.8884069920, -1.1213,  0.0710, -0.1997, 16.7389, -6.3019,-24.9634
1489428118.8884840012,1489428118.8908860683, -1.1213,  0.0710, -0.1997, 16.7389, -6.3019,-24.9634
1489428118.8910090923,1489428118.8934140205, -1.1213,  0.0710, -0.1997, 16.7389, -6.3019,-24.9634
1489428118.8934910297,1489428118.8958959579, -1.1213,  0.0710, -0.1997, 16.7389, -6.3019,-24.9634
1489428118.8959720135,1489428118.8983740807, -1.1213,  0.0710, -0.1997, 20.6451, -5.9052,-23.2849
1489428118.8985590935,1489428118.9009790421, -1.1213,  0.0710, -0.1997, 20.2637, -5.9052,-23.2849
1489428118.9010560513,1489428118.9033370018, -1.1213,  0.0710, -0.1997, 20.2637, -5.9052,-23.2849
1489428118.9034140110,1489428118.9056971073, -1.1223,  0.0310, -0.1660, 20.2637, -5.9052,-23.2849
1489428118.9057741165,1489428118.9080550671, -1.1223,  0.0310, -0.1660, 20.2637, -5.9052,-23.2849
1489428118.9081320763,1489428118.9104089737, -1.1223,  0.0310, -0.1660, 23.7274, -5.2338,-22.5983
1489428118.9104859829,1489428118.9128749371, -1.1223,  0.0310, -0.1660, 23.7274, -5.2338,-22.5983
1489428118.9129528999,1489428118.9153590202, -1.1223,  0.0310, -0.1660, 23.7274, -5.2338,-22.5983
1489428118.9154350758,1489428118.9178450108, -1.1223,  0.0310, -0.1660, 23.7274, -5.2338,-22.5983
1489428118.9179220200,1489428118.9203310013, -1.1223,  0.0310, -0.1660, 25.0397, -4.8676,-21.7438
1489428118.9204089642,1489428118.9228351116, -1.1223,  0.0310, -0.1660, 25.0397, -4.8676,-21.7438
1489428118.9229130745,1489428118.9253199100, -1.1060,  0.1018, -0.1704, 25.0397, -4.8676,-21.7438
1489428118.9253981113,1489428118.9278090000, -1.1060,  0.1018, -0.1704, 25.0397, -4.8676,-21.7438
1489428118.9278869629,1489428118.9302959442, -1.1060,  0.1018, -0.1704, 24.6582, -4.1351,-21.9421
1489428118.9303739071,1489428118.9327960014, -1.1060,  0.1018, -0.1704, 24.6582, -4.1351,-21.9421
1489428118.9328739643,1489428118.9352850914, -1.1060,  0.1018, -0.1704, 24.6582, -4.1351,-21.9421
1489428118.9353621006,1489428118.9377720356, -1.1060,  0.1018, -0.1704, 24.6582, -4.1351,-21.9421
1489428118.9378509521,1489428118.9402570724, -1.1060,  0.1018, -0.1704, 24.6582, -4.1351,-23.5291
1489428118.9403340816,1489428118.9426620007, -1.1060,  0.1018, -0.1704, 25.2380, -4.1351,-23.5291
1489428118.9427399635,1489428118.9450271130, -1.1538,  0.1023, -0.1729, 25.2380, -4.1351,-23.5291
1489428118.9451029301,1489428118.9473860264, -1.1538,  0.1023, -0.1729, 25.2380, -4.1351,-23.5291
1489428118.9474639893,1489428118.9497499466, -1.1538,  0.1023, -0.1729, 25.2380, -4.1351,-23.5291
1489428118.9498269558,1489428118.9521369934, -1.1538,  0.1023, -0.1729, 24.9786, -4.4708,-25.6805
1489428118.9522130489,1489428118.9544959068, -1.1538,  0.1023, -0.1729, 24.9786, -4.4708,-25.6805
1489428118.9545729160,1489428118.9568519592, -1.1538,  0.1023, -0.1729, 24.9786, -4.4708,-25.6805
1489428118.9569289684,1489428118.9592120647, -1.1538,  0.1023, -0.1729, 24.9786, -4.4708,-25.6805
1489428118.9592878819,1489428118.9616138935, -1.1538,  0.1023, -0.1729, 24.9786, -4.0283,-26.9623
1489428118.9616909027,1489428118.9640939236, -1.1538,  0.1648, -0.2090, 23.6206, -4.0283,-26.9623
1489428118.9641699791,1489428118.9665739536, -1.1318,  0.1450, -0.2090, 23.6206, -4.0283,-26.9623
1489428118.9666500092,1489428118.9690520763, -1.1318,  0.1450, -0.2090, 23.6206, -4.0283,-26.9623
1489428118.9691290855,1489428118.9715409279, -1.1318,  0.1450, -0.2090, 23.6206, -4.0283,-30.8685
1489428118.9716169834,1489428118.9740180969, -1.1318,  0.1450, -0.2090, 20.7672, -3.9825,-27.6489
1489428118.9740939140,1489428118.9764940739, -1.1318,  0.1450, -0.2090, 20.7672, -3.9825,-27.6489
1489428118.9765698910,1489428118.9789769650, -1.1318,  0.1450, -0.2090, 20.7672, -3.9825,-27.6489
1489428118.9790539742,1489428118.9814529419, -1.1318,  0.1450, -0.2090, 20.7672, -3.9825,-27.6489
1489428118.9815299511,1489428118.9839320183, -1.1318,  0.1450, -0.1924, 18.9514, -4.1199,-28.3203
1489428118.9840090275,1489428118.9864120483, -1.1074,  0.0391, -0.1924, 18.9514, -4.1199,-28.3203
1489428118.9864900112,1489428118.9888930321, -1.1074,  0.0391, -0.1924, 18.9514, -4.1199,-28.3203
1489428118.9889709949,1489428118.9913859367, -1.1074,  0.0391, -0.1924, 18.9514, -4.1199,-28.3203
1489428118.9914629459,1489428118.9938640594, -1.1074,  0.0391, -0.1924, 19.2871, -4.3488,-29.5868
1489428118.9939410686,1489428118.9963510036, -1.1074,  0.0391, -0.1924, 19.2871, -4.3488,-29.5868
1489428118.9964280128,1489428118.9988350868, -1.1074,  0.0391, -0.1924, 19.2871, -4.3488,-29.5868
1489428118.9989120960,1489428119.0013339520, -1.1074,  0.0391, -0.1924, 19.2871, -4.3488,-29.5868
1489428119.0015270710,1489428119.0038130283, -1.1074,  0.0391, -0.1641, 19.2871, -4.3488,-30.1361
1489428119.0038900375,1489428119.0061719418, -1.1372,  0.0139, -0.1641, 20.8435, -4.8828,-30.1361
1489428119.0062479973,1489428119.0085270405, -1.1372,  0.0139, -0.1641, 20.8435, -4.8828,-30.1361
1489428119.0086040497,1489428119.0108830929, -1.1372,  0.0139, -0.1641, 20.8435, -4.8828,-30.1361
1489428119.0110149384,1489428119.0134239197, -1.1372,  0.0139, -0.1641, 20.8435, -4.8828,-30.1361
1489428119.0135009289,1489428119.0159070492, -1.1372,  0.0139, -0.1641, 22.6288, -6.0883,-30.1361
1489428119.0159840584,1489428119.0183930397, -1.1372,  0.0139, -0.1641, 22.6288, -6.0883,-30.1361
1489428119.0184710026,1489428119.0208721161, -1.1372,  0.0139, -0.1641, 22.6288, -6.0883,-30.1361
1489428119.0209989548,1489428119.0234079361, -1.1372,  0.0139, -0.1641, 22.6288, -6.0883,-30.1361
1489428119.0234849453,1489428119.0258920193, -1.1594,  0.0669, -0.1428, 21.8506, -6.1188,-30.1208
1489428119.0259699821,1489428119.0283730030, -1.1594,  0.0669, -0.1428, 21.8506, -6.1188,-30.1208
