timestamp_before,timestamp_after,accel_x,accel_y,accel_z,gyro_x,gyro_y,gryo_z
1489427957.3797171116,1489427957.3822979927, -1.3262, -0.0378,  0.0828, -5.0049, -0.2747, -3.8300
1489427957.3824310303,1489427957.3847188950, -1.3333, -0.0378,  0.0828, -5.0049, -0.2747, -3.8300
1489427957.3847920895,1489427957.3871660233, -1.3333, -0.0378,  0.0828, -5.0049, -0.2747, -3.8300
1489427957.3872370720,1489427957.3895239830, -1.3333, -0.0378,  0.0828, -4.9591, -0.3967, -3.8910
1489427957.3895950317,1489427957.3919479847, -1.3333, -0.0378,  0.0828, -4.9591, -0.3967, -3.8910
1489427957.3920190334,1489427957.3943009377, -1.3333, -0.0300,  0.0457, -4.9591, -0.3967, -3.8910
1489427957.3943729401,1489427957.3966500759, -1.1338, -0.0300,  0.0457, -4.9591, -0.3967, -3.8910
1489427957.3967220783,1489427957.3990070820, -1.1338, -0.0300,  0.0457, -4.8065, -0.6104, -3.6774
1489427957.3990778923,1489427957.4019780159, -1.1338, -0.0300,  0.0457, -4.8065, -0.6104, -3.6774
1489427957.4020578861,1489427957.4054620266, -1.1338, -0.0300,  0.0457, -4.8065, -0.6104, -3.6774
1489427957.4055409431,1489427957.4082601070, -1.1338, -0.0300,  0.0457, -4.8065, -0.6104, -3.6774
1489427957.4083390236,1489427957.4107420444, -1.1338, -0.0300,  0.0457, -4.4556, -0.4730, -3.8605
1489427957.4108130932,1489427957.4131200314, -1.1338, -0.0300,  0.0457, -4.4556, -0.4730, -3.8605
1489427957.4131910801,1489427957.4154748917, -1.1379, -0.0310,  0.0442, -4.4556, -0.4730, -3.8605
1489427957.4155459404,1489427957.4178249836, -1.1379, -0.0310,  0.0442, -4.4556, -0.4730, -3.8605
1489427957.4178960323,1489427957.4201738834, -1.1379, -0.0310,  0.0442, -4.7302,  0.0000, -4.1962
1489427957.4202439785,1489427957.4226839542, -1.1379, -0.0310,  0.0442, -4.7302,  0.0000, -4.1962
1489427957.4227550030,1489427957.4251379967, -1.1379, -0.0310,  0.0442, -4.7302,  0.0000, -4.1962
1489427957.4252090454,1489427957.4274868965, -1.1379, -0.0310,  0.0442, -4.7302,  0.0000, -4.1962
1489427957.4275579453,1489427957.4298379421, -1.1379, -0.0310,  0.0442, -4.7302,  0.0000, -4.1504
1489427957.4299080372,1489427957.4322009087, -1.1379, -0.0310,  0.0442, -4.5319, -0.1526, -4.1504
1489427957.4322719574,1489427957.4345569611, -1.1379, -0.0320,  0.0178, -4.5319, -0.1526, -4.1504
1489427957.4346280098,1489427957.4369080067, -1.1362, -0.0320,  0.0178, -4.5319, -0.1526, -4.1504
1489427957.4369781017,1489427957.4392569065, -1.1362, -0.0320,  0.0178, -4.5319, -0.1526, -4.1504
1489427957.4393270016,1489427957.4417829514, -1.1362, -0.0320,  0.0178, -4.4708, -0.4578, -3.8910
1489427957.4418549538,1489427957.4441399574, -1.1362, -0.0320,  0.0178, -4.4708, -0.4578, -3.8910
1489427957.4442100525,1489427957.4464929104, -1.1362, -0.0320,  0.0178, -4.4708, -0.4578, -3.8910
1489427957.4465649128,1489427957.4488520622, -1.1362, -0.0320,  0.0178, -4.4708, -0.4578, -3.8910
1489427957.4489219189,1489427957.4513320923, -1.1362, -0.0320,  0.0178, -4.4708, -0.4578, -3.8757
1489427957.4514029026,1489427957.4538021088, -1.1362, -0.0320,  0.0178, -4.1656, -0.5646, -3.8757
1489427957.4538719654,1489427957.4562671185, -1.1333, -0.0315,  0.0410, -4.1656, -0.5646, -3.8757
1489427957.4563379288,1489427957.4587330818, -1.1333, -0.0315,  0.0410, -4.1656, -0.5646, -3.8757
1489427957.4588038921,1489427957.4612050056, -1.1333, -0.0315,  0.0410, -4.1656, -0.5646, -3.8757
1489427957.4612751007,1489427957.4636940956, -1.1333, -0.0315,  0.0410, -4.1351, -0.6104, -3.7994
1489427957.4637660980,1489427957.4661700726, -1.1333, -0.0315,  0.0410, -4.1351, -0.6104, -3.7994
1489427957.4662408829,1489427957.4686450958, -1.1333, -0.0315,  0.0410, -4.1351, -0.6104, -3.7994
1489427957.4687149525,1489427957.4711260796, -1.1333, -0.0315,  0.0410, -4.1351, -0.6104, -3.7994
1489427957.4712419510,1489427957.4735250473, -1.1333, -0.0315,  0.0410, -4.5319, -0.2136, -3.2959
1489427957.4735960960,1489427957.4758729935, -1.1348, -0.0376,  0.0398, -4.5319, -0.2136, -3.2959
1489427957.4759430885,1489427957.4782218933, -1.1348, -0.0376,  0.0398, -4.5319, -0.2136, -3.2959
1489427957.4782919884,1489427957.4805738926, -1.1348, -0.0376,  0.0398, -4.5319, -0.2136, -3.2959
1489427957.4806439877,1489427957.4829330444, -1.1348, -0.0376,  0.0398, -4.5319, -0.2136, -3.0975
1489427957.4831418991,1489427957.4854259491, -1.1348, -0.0376,  0.0398, -4.3030, -0.6409, -3.0975
1489427957.4854969978,1489427957.4877760410, -1.1348, -0.0376,  0.0398, -4.3030, -0.6409, -3.0975
1489427957.4878458977,1489427957.4901249409, -1.1348, -0.0376,  0.0398, -4.3030, -0.6409, -3.0975
1489427957.4901950359,1489427957.4925229549, -1.1348, -0.0376,  0.0398, -4.3030, -0.6409, -3.0975
1489427957.4925930500,1489427957.4948759079, -1.1389, -0.0293,  0.0249, -4.1656, -0.5493, -3.5248
1489427957.4949469566,1489427957.4972290993, -1.1389, -0.0293,  0.0249, -4.1656, -0.5493, -3.5248
1489427957.4972989559,1489427957.4995770454, -1.1389, -0.0293,  0.0249, -4.1656, -0.5493, -3.5248
1489427957.4996469021,1489427957.5021409988, -1.1389, -0.0293,  0.0249, -4.1656, -0.5493, -3.5248
1489427957.5022110939,1489427957.5044949055, -1.1389, -0.0293,  0.0249, -4.1809, -0.3357, -3.3569
1489427957.5045659542,1489427957.5068440437, -1.1389, -0.0293,  0.0249, -4.1809, -0.3357, -3.3569
1489427957.5069129467,1489427957.5091910362, -1.1389, -0.0293,  0.0249, -4.1809, -0.3357, -3.3569
1489427957.5092620850,1489427957.5117359161, -1.1389, -0.0293,  0.0249, -4.1809, -0.3357, -3.3569
1489427957.5118069649,1489427957.5141749382, -1.1389, -0.0293,  0.0520, -4.1809, -0.3357, -3.3569
1489427957.5142450333,1489427957.5171749592, -1.1365, -0.0273,  0.0520, -4.3945, -0.9155, -3.2043
1489427957.5172469616,1489427957.5196480751, -1.1365, -0.0273,  0.0520, -4.3945, -0.9155, -3.2043
1489427957.5197188854,1489427957.5221080780, -1.1365, -0.0273,  0.0520, -4.3945, -0.9155, -3.2043
1489427957.5221788883,1489427957.5244638920, -1.1365, -0.0273,  0.0520, -4.3945, -0.9155, -3.2043
1489427957.5245349407,1489427957.5268189907, -1.1365, -0.0273,  0.0520, -4.4250, -0.9766, -3.7842
1489427957.5268909931,1489427957.5291750431, -1.1365, -0.0273,  0.0520, -4.4250, -0.9766, -3.7842
1489427957.5292460918,1489427957.5315868855, -1.1365, -0.0273,  0.0520, -4.4250, -0.9766, -3.7842
1489427957.5316588879,1489427957.5340650082, -1.1365, -0.0273,  0.0520, -4.4250, -0.9766, -3.7842
1489427957.5341351032,1489427957.5365390778, -1.1345, -0.0288,  0.0520, -4.9438, -0.5798, -3.7842
1489427957.5366098881,1489427957.5390241146, -1.1345, -0.0288,  0.0520, -4.9438, -0.5798, -3.7842
1489427957.5390949249,1489427957.5415430069, -1.1345, -0.0288,  0.0520, -4.9438, -0.5798, -3.7842
1489427957.5416131020,1489427957.5440270901, -1.1345, -0.0288,  0.0520, -4.9438, -0.5798, -3.7842
1489427957.5440979004,1489427957.5465068817, -1.1345, -0.0288,  0.0520, -4.9438, -0.6561, -3.7231
1489427957.5465769768,1489427957.5489859581, -1.1345, -0.0288,  0.0520, -4.8065, -0.6561, -3.7231
1489427957.5490560532,1489427957.5514481068, -1.1345, -0.0288,  0.0520, -4.8065, -0.6561, -3.7231
1489427957.5515189171,1489427957.5538039207, -1.1345, -0.0288,  0.0520, -4.8065, -0.6561, -3.7231
1489427957.5538740158,1489427957.5561521053, -1.1316, -0.0378,  0.0422, -4.8065, -0.6561, -3.7231
1489427957.5562219620,1489427957.5585110188, -1.1316, -0.0378,  0.0422, -5.2490, -0.4578, -3.7689
1489427957.5585820675,1489427957.5608620644, -1.1316, -0.0378,  0.0422, -5.2490, -0.4578, -3.7689
1489427957.5611119270,1489427957.5634028912, -1.1316, -0.0378,  0.0422, -5.2490, -0.4578, -3.7689
1489427957.5634729862,1489427957.5657598972, -1.1316, -0.0378,  0.0422, -5.2490, -0.4578, -3.7689
1489427957.5658299923,1489427957.5681118965, -1.1316, -0.0378,  0.0422, -5.1575, -0.7172, -3.6011
1489427957.5681819916,1489427957.5704669952, -1.1316, -0.0378,  0.0422, -5.1575, -0.7172, -3.6011
1489427957.5705370903,1489427957.5729629993, -1.1316, -0.0378,  0.0422, -5.1575, -0.7172, -3.6011
1489427957.5730350018,1489427957.5753200054, -1.1304, -0.0332,  0.0630, -5.1575, -0.7172, -3.6011
1489427957.5753910542,1489427957.5776829720, -1.1304, -0.0332,  0.0630, -5.1575, -0.7172, -3.6316
1489427957.5777530670,1489427957.5800321102, -1.1304, -0.0332,  0.0630, -5.1727, -0.5035, -3.6316
1489427957.5801019669,1489427957.5824689865, -1.1304, -0.0332,  0.0630, -5.1727, -0.5035, -3.6316
1489427957.5826539993,1489427957.5850460529, -1.1304, -0.0332,  0.0630, -5.1727, -0.5035, -3.6316
1489427957.5851159096,1489427957.5875051022, -1.1304, -0.0332,  0.0630, -5.1727, -0.5035, -3.6316
1489427957.5875759125,1489427957.5899689198, -1.1304, -0.0332,  0.0630, -4.7302, -0.7172, -3.3264
1489427957.5900399685,1489427957.5924420357, -1.1304, -0.0332,  0.0630, -4.7302, -0.7172, -3.3264
1489427957.5925130844,1489427957.5949029922, -1.1304, -0.0315,  0.0432, -4.7302, -0.7172, -3.3264
1489427957.5949740410,1489427957.5973680019, -1.1394, -0.0315,  0.0432, -4.7302, -0.7172, -3.3264
1489427957.5974390507,1489427957.5998280048, -1.1394, -0.0315,  0.0432, -4.1809, -0.3662, -3.2654
1489427957.5998990536,1489427957.6023540497, -1.1394, -0.0315,  0.0432, -4.1809, -0.3662, -3.2654
1489427957.6024239063,1489427957.6048150063, -1.1394, -0.0315,  0.0432, -4.1809, -0.3662, -3.2654
1489427957.6048860550,1489427957.6072800159, -1.1394, -0.0315,  0.0432, -4.1809, -0.3662, -3.2654
1489427957.6073520184,1489427957.6097459793, -1.1394, -0.0315,  0.0432, -4.1809, -0.3662, -3.1128
1489427957.6098160744,1489427957.6122210026, -1.1394, -0.0315,  0.0432, -4.7607, -0.6104, -3.1128
1489427957.6122920513,1489427957.6146829128, -1.1394, -0.0315,  0.0254, -4.7607, -0.6104, -3.1128
1489427957.6147530079,1489427957.6171469688, -1.1421, -0.0308,  0.0254, -4.7607, -0.6104, -3.1128
1489427957.6172180176,1489427957.6196091175, -1.1421, -0.0308,  0.0254, -4.7607, -0.6104, -3.1128
1489427957.6196799278,1489427957.6220419407, -1.1421, -0.0308,  0.0254, -4.3488, -0.5951, -3.2196
1489427957.6221148968,1489427957.6243970394, -1.1421, -0.0308,  0.0254, -4.3488, -0.5951, -3.2196
1489427957.6244668961,1489427957.6268689632, -1.1421, -0.0308,  0.0254, -4.3488, -0.5951, -3.2196
1489427957.6270279884,1489427957.6293089390, -1.1421, -0.0308,  0.0254, -4.3488, -0.5951, -3.2196
1489427957.6293799877,1489427957.6317110062, -1.1421, -0.0308,  0.0254, -4.5013, -0.1526, -3.3875
1489427957.6317820549,1489427957.6340610981, -1.1421, -0.0308,  0.0254, -4.5013, -0.1526, -3.3875
1489427957.6341319084,1489427957.6364119053, -1.1301, -0.0354,  0.0381, -4.5013, -0.1526, -3.3875
1489427957.6364829540,1489427957.6387560368, -1.1301, -0.0354,  0.0381, -4.5013, -0.1526, -3.3875
1489427957.6388270855,1489427957.6411540508, -1.1301, -0.0354,  0.0381, -4.5013, -0.1526, -3.0670
1489427957.6412250996,1489427957.6435070038, -1.1301, -0.0354,  0.0381, -4.8065, -0.3052, -3.0670
1489427957.6435780525,1489427957.6458599567, -1.1301, -0.0354,  0.0381, -4.8065, -0.3052, -3.0670
1489427957.6459300518,1489427957.6482141018, -1.1301, -0.0354,  0.0381, -4.8065, -0.3052, -3.0670
1489427957.6482849121,1489427957.6505670547, -1.1301, -0.0354,  0.0381, -4.8065, -0.3052, -3.0670
1489427957.6506381035,1489427957.6530458927, -1.1301, -0.0354,  0.0381, -5.0049, -0.8545, -2.8381
1489427957.6531178951,1489427957.6555249691, -1.1326, -0.0347,  0.0403, -5.0049, -0.8545, -2.8381
1489427957.6555960178,1489427957.6580030918, -1.1326, -0.0347,  0.0403, -5.0049, -0.8545, -2.8381
1489427957.6580729485,1489427957.6604809761, -1.1326, -0.0347,  0.0403, -5.0049, -0.8545, -2.8381
1489427957.6605520248,1489427957.6628670692, -1.1326, -0.0347,  0.0403, -5.0049, -0.5646, -3.0670
1489427957.6629381180,1489427957.6652181149, -1.1326, -0.0347,  0.0403, -4.3945, -0.5646, -3.0670
1489427957.6652879715,1489427957.6675710678, -1.1326, -0.0347,  0.0403, -4.3945, -0.5646, -3.0670
1489427957.6676421165,1489427957.6699249744, -1.1326, -0.0347,  0.0403, -4.3945, -0.5646, -3.0670
1489427957.6699950695,1489427957.6724100113, -1.1326, -0.0347,  0.0403, -4.3945, -0.5646, -3.0670
1489427957.6724820137,1489427957.6747670174, -1.1326, -0.0339,  0.0349, -4.5013, -0.7935, -3.5858
1489427957.6748371124,1489427957.6771230698, -1.1370, -0.0339,  0.0349, -4.5013, -0.7935, -3.5858
1489427957.6771929264,1489427957.6794750690, -1.1370, -0.0339,  0.0349, -4.5013, -0.7935, -3.5858
1489427957.6795461178,1489427957.6818571091, -1.1370, -0.0339,  0.0349, -4.5013, -0.7935, -3.5858
1489427957.6819269657,1489427957.6842110157, -1.1370, -0.0339,  0.0349, -4.2267, -0.8698, -3.0670
1489427957.6843969822,1489427957.6866860390, -1.1370, -0.0339,  0.0349, -4.2267, -0.8698, -3.0670
1489427957.6867558956,1489427957.6890370846, -1.1370, -0.0339,  0.0349, -4.2267, -0.8698, -3.0670
1489427957.6891078949,1489427957.6914238930, -1.1370, -0.0339,  0.0349, -4.2267, -0.8698, -3.0670
1489427957.6914949417,1489427957.6938829422, -1.1370, -0.0339,  0.0349, -4.2267, -0.8698, -3.0670
1489427957.6939549446,1489427957.6963529587, -1.1372, -0.0332,  0.0374, -4.6234, -0.6104, -3.5858
1489427957.6964240074,1489427957.6988129616, -1.1372, -0.0332,  0.0374, -4.6234, -0.6104, -3.5858
1489427957.6988840103,1489427957.7012810707, -1.1372, -0.0332,  0.0374, -4.6234, -0.6104, -3.5858
1489427957.7013518810,1489427957.7037379742, -1.1372, -0.0332,  0.0374, -4.6234, -0.6104, -3.5858
1489427957.7038099766,1489427957.7061998844, -1.1372, -0.0332,  0.0374, -4.7913, -0.5646, -3.4790
1489427957.7062709332,1489427957.7086579800, -1.1372, -0.0332,  0.0374, -4.7913, -0.5646, -3.4790
1489427957.7087299824,1489427957.7111639977, -1.1372, -0.0332,  0.0374, -4.7913, -0.5646, -3.4790
1489427957.7112350464,1489427957.7136259079, -1.1372, -0.0332,  0.0374, -4.7913, -0.5646, -3.4790
1489427957.7136969566,1489427957.7160849571, -1.1355, -0.0303,  0.0403, -3.9215, -0.4883, -3.7842
1489427957.7161560059,1489427957.7185449600, -1.1355, -0.0303,  0.0403, -3.9215, -0.4883, -3.7842
1489427957.7186160088,1489427957.7210168839, -1.1355, -0.0303,  0.0403, -3.9215, -0.4883, -3.7842
1489427957.7210869789,1489427957.7234499454, -1.1355, -0.0303,  0.0403, -3.9215, -0.4883, -3.7842
1489427957.7235200405,1489427957.7259030342, -1.1355, -0.0303,  0.0403, -3.9215, -0.4883, -3.8757
1489427957.7259740829,1489427957.7283859253, -1.1355, -0.0303,  0.0403, -4.1962, -0.6256, -3.8757
1489427957.7284569740,1489427957.7308681011, -1.1355, -0.0303,  0.0403, -4.1962, -0.6256, -3.8757
1489427957.7310159206,1489427957.7333009243, -1.1355, -0.0303,  0.0403, -4.1962, -0.6256, -3.8757
1489427957.7333710194,1489427957.7356579304, -1.1382, -0.0332,  0.0334, -4.1962, -0.6256, -3.8757
1489427957.7357289791,1489427957.7380120754, -1.1382, -0.0332,  0.0334, -4.8065, -0.7172, -3.5706
1489427957.7380819321,1489427957.7403628826, -1.1382, -0.0332,  0.0334, -4.8065, -0.7172, -3.5706
1489427957.7404329777,1489427957.7428259850, -1.1382, -0.0332,  0.0334, -4.8065, -0.7172, -3.5706
1489427957.7428970337,1489427957.7451829910, -1.1382, -0.0332,  0.0334, -4.8065, -0.7172, -3.5706
1489427957.7452530861,1489427957.7475368977, -1.1382, -0.0332,  0.0334, -4.8065, -0.8698, -3.0823
1489427957.7476079464,1489427957.7498879433, -1.1382, -0.0332,  0.0334, -4.5166, -0.8698, -3.0823
1489427957.7499580383,1489427957.7523579597, -1.1382, -0.0332,  0.0334, -4.5166, -0.8698, -3.0823
1489427957.7524290085,1489427957.7548398972, -1.1382, -0.0332,  0.0344, -4.5166, -0.8698, -3.0823
1489427957.7549109459,1489427957.7573199272, -1.1370, -0.0332,  0.0344, -4.5166, -0.8698, -3.0823
1489427957.7573909760,1489427957.7597959042, -1.1370, -0.0332,  0.0344, -4.2267, -0.7172, -2.7618
1489427957.7598669529,1489427957.7622799873, -1.1370, -0.0332,  0.0344, -4.2267, -0.7172, -2.7618
1489427957.7623500824,1489427957.7647540569, -1.1370, -0.0332,  0.0344, -4.2267, -0.7172, -2.7618
1489427957.7648251057,1489427957.7672328949, -1.1370, -0.0332,  0.0344, -4.2267, -0.7172, -2.7618
1489427957.7673039436,1489427957.7697119713, -1.1370, -0.0332,  0.0344, -4.7302, -1.0834, -2.6855
1489427957.7697811127,1489427957.7721989155, -1.1370, -0.0332,  0.0344, -4.7302, -1.0834, -2.6855
1489427957.7722690105,1489427957.7746748924, -1.1370, -0.0332,  0.0530, -4.7302, -1.0834, -2.6855
1489427957.7747440338,1489427957.7771549225, -1.1292, -0.0364,  0.0530, -4.7302, -1.0834, -2.6855
1489427957.7772250175,1489427957.7796270847, -1.1292, -0.0364,  0.0530, -4.7455, -0.5035, -2.6245
1489427957.7796969414,1489427957.7821409702, -1.1292, -0.0364,  0.0530, -4.7455, -0.5035, -2.6245
1489427957.7822110653,1489427957.7846150398, -1.1292, -0.0364,  0.0530, -4.7455, -0.5035, -2.6245
1489427957.7846860886,1489427957.7870960236, -1.1292, -0.0364,  0.0530, -4.7455, -0.5035, -2.6245
1489427957.7872769833,1489427957.7896840572, -1.1292, -0.0364,  0.0530, -4.7455, -0.0916, -2.6855
1489427957.7897539139,1489427957.7921109200, -1.1292, -0.0364,  0.0530, -4.5471, -0.0916, -2.6855
1489427957.7921819687,1489427957.7944641113, -1.1292, -0.0364,  0.0349, -4.5471, -0.0916, -2.6855
1489427957.7945330143,1489427957.7968130112, -1.1353, -0.0317,  0.0349, -4.5471, -0.0916, -2.6855
1489427957.7968831062,1489427957.7991669178, -1.1353, -0.0317,  0.0349, -4.5471, -0.0916, -2.6855
1489427957.7992370129,1489427957.8015799522, -1.1353, -0.0317,  0.0349, -4.7455, -0.5493, -2.4719
1489427957.8016500473,1489427957.8040370941, -1.1353, -0.0317,  0.0349, -4.7455, -0.5493, -2.4719
1489427957.8041079044,1489427957.8064990044, -1.1353, -0.0317,  0.0349, -4.7455, -0.5493, -2.4719
1489427957.8065690994,1489427957.8089570999, -1.1353, -0.0317,  0.0349, -4.7455, -0.5493, -2.4719
1489427957.8090279102,1489427957.8114259243, -1.1353, -0.0317,  0.0349, -4.6082, -0.2899, -2.6398
1489427957.8114960194,1489427957.8138859272, -1.1353, -0.0317,  0.0349, -4.6082, -0.2899, -2.6398
1489427957.8139569759,1489427957.8163421154, -1.1379, -0.0286,  0.0210, -4.6082, -0.2899, -2.6398
1489427957.8164129257,1489427957.8188021183, -1.1379, -0.0286,  0.0210, -4.6082, -0.2899, -2.6398
1489427957.8188738823,1489427957.8212618828, -1.1379, -0.0286,  0.0210, -4.6082, -0.3357, -2.7924
1489427957.8213329315,1489427957.8236970901, -1.1379, -0.0286,  0.0210, -4.6234, -0.3357, -2.7924
1489427957.8237669468,1489427957.8261768818, -1.1379, -0.0286,  0.0210, -4.6234, -0.3357, -2.7924
1489427957.8262488842,1489427957.8286530972, -1.1379, -0.0286,  0.0210, -4.6234, -0.3357, -2.7924
1489427957.8287239075,1489427957.8311460018, -1.1379, -0.0286,  0.0210, -4.6234, -0.3357, -2.7924
1489427957.8312160969,1489427957.8336141109, -1.1379, -0.0286,  0.0210, -4.2572, -0.4425, -3.0212
1489427957.8336839676,1489427957.8360829353, -1.1409, -0.0249,  0.0356, -4.2572, -0.4425, -3.0212
1489427957.8361539841,1489427957.8385510445, -1.1409, -0.0249,  0.0356, -4.2572, -0.4425, -3.0212
1489427957.8386220932,1489427957.8410260677, -1.1409, -0.0249,  0.0356, -4.2572, -0.4425, -3.0212
1489427957.8410971165,1489427957.8433809280, -1.1409, -0.0249,  0.0356, -4.3945, -0.3204, -3.1891
1489427957.8434519768,1489427957.8457329273, -1.1409, -0.0249,  0.0356, -4.3945, -0.3204, -3.1891
1489427957.8458039761,1489427957.8480839729, -1.1409, -0.0249,  0.0356, -4.3945, -0.3204, -3.1891
1489427957.8481540680,1489427957.8504369259, -1.1409, -0.0249,  0.0356, -4.3945, -0.3204, -3.1891
1489427957.8505079746,1489427957.8529410362, -1.1409, -0.0249,  0.0356, -4.3945, -0.3204, -3.2806
1489427957.8530108929,1489427957.8554189205, -1.1409, -0.0286,  0.0337, -4.3182, -0.5493, -3.2806
1489427957.8554890156,1489427957.8578939438, -1.1428, -0.0286,  0.0337, -4.3182, -0.5493, -3.2806
1489427957.8579640388,1489427957.8603670597, -1.1428, -0.0286,  0.0337, -4.3182, -0.5493, -3.2806
1489427957.8604369164,1489427957.8628499508, -1.1428, -0.0286,  0.0337, -4.3182, -0.5493, -3.2806
1489427957.8629209995,1489427957.8653259277, -1.1428, -0.0286,  0.0337, -4.6082, -0.7782, -3.4180
1489427957.8653969765,1489427957.8678030968, -1.1428, -0.0286,  0.0337, -4.6082, -0.7782, -3.4180
1489427957.8678739071,1489427957.8702778816, -1.1428, -0.0286,  0.0337, -4.6082, -0.7782, -3.4180
1489427957.8703489304,1489427957.8726780415, -1.1428, -0.0286,  0.0337, -4.6082, -0.7782, -3.4180
1489427957.8727490902,1489427957.8750350475, -1.1428, -0.0286,  0.0410, -4.3945, -1.0529, -3.2043
1489427957.8751049042,1489427957.8773889542, -1.1340, -0.0334,  0.0410, -4.3945, -1.0529, -3.2043
1489427957.8774590492,1489427957.8797430992, -1.1340, -0.0334,  0.0410, -4.3945, -1.0529, -3.2043
1489427957.8798120022,1489427957.8821361065, -1.1340, -0.0334,  0.0410, -4.3945, -1.0529, -3.2043
1489427957.8822050095,1489427957.8844881058, -1.1340, -0.0334,  0.0410, -4.3945, -1.0529, -2.9297
1489427957.8845579624,1489427957.8868370056, -1.1340, -0.0334,  0.0410, -4.3640, -1.0071, -2.9297
1489427957.8869049549,1489427957.8891839981, -1.1340, -0.0334,  0.0410, -4.3640, -1.0071, -2.9297
1489427957.8893580437,1489427957.8916931152, -1.1340, -0.0334,  0.0410, -4.3640, -1.0071, -2.9297
1489427957.8917620182,1489427957.8940410614, -1.1340, -0.0334,  0.0410, -4.3640, -1.0071, -2.9297
1489427957.8941099644,1489427957.8963840008, -1.1316, -0.0320,  0.0325, -3.8757, -0.7324, -3.2959
1489427957.8964540958,1489427957.8987319469, -1.1316, -0.0320,  0.0325, -3.8757, -0.7324, -3.2959
1489427957.8988029957,1489427957.9011418819, -1.1316, -0.0320,  0.0325, -3.8757, -0.7324, -3.2959
1489427957.9012129307,1489427957.9036169052, -1.1316, -0.0320,  0.0325, -3.8757, -0.7324, -3.2959
1489427957.9036879539,1489427957.9060909748, -1.1316, -0.0320,  0.0325, -7.7820, -0.9918, -3.2196
1489427957.9061620235,1489427957.9085700512, -1.1316, -0.0320,  0.0325, -4.1046, -0.9918, -3.2196
1489427957.9086410999,1489427957.9110538960, -1.1316, -0.0320,  0.0325, -4.1046, -0.9918, -3.2196
1489427957.9111249447,1489427957.9135329723, -1.1316, -0.0320,  0.0325, -4.1046, -0.9918, -3.2196
1489427957.9136040211,1489427957.9160110950, -1.1362, -0.0273,  0.0310, -4.1046, -0.9918, -3.1281
1489427957.9160809517,1489427957.9184920788, -1.1362, -0.0273,  0.0310, -4.8828, -1.1444, -3.1281
1489427957.9185619354,1489427957.9209809303, -1.1362, -0.0273,  0.0310, -4.8828, -1.1444, -3.1281
1489427957.9210500717,1489427957.9234569073, -1.1362, -0.0273,  0.0310, -4.8828, -1.1444, -3.1281
1489427957.9235270023,1489427957.9259340763, -1.1362, -0.0273,  0.0310, -4.8828, -1.1444, -3.1281
1489427957.9260039330,1489427957.9284079075, -1.1362, -0.0273,  0.0310, -4.3793, -1.3885, -3.5553
1489427957.9284780025,1489427957.9308810234, -1.1362, -0.0273,  0.0310, -4.3793, -1.3885, -3.5553
1489427957.9310181141,1489427957.9333078861, -1.1362, -0.0273,  0.0310, -4.3793, -1.3885, -3.5553
1489427957.9333770275,1489427957.9356629848, -1.1423, -0.0232,  0.0386, -4.3793, -1.3885, -3.5553
1489427957.9357318878,1489427957.9380109310, -1.1423, -0.0232,  0.0386, -4.5471, -1.0376, -3.8910
1489427957.9380800724,1489427957.9403638840, -1.1423, -0.0232,  0.0386, -4.5471, -1.0376, -3.8910
1489427957.9404330254,1489427957.9428279400, -1.1423, -0.0232,  0.0386, -4.5471, -1.0376, -3.8910
1489427957.9428980350,1489427957.9453070164, -1.1423, -0.0232,  0.0386, -4.5471, -1.0376, -3.8910
1489427957.9453771114,1489427957.9477829933, -1.1423, -0.0232,  0.0386, -4.5471, -1.0376, -4.3488
1489427957.9478509426,1489427957.9502620697, -1.1423, -0.0232,  0.0386, -3.7689, -1.3733, -4.3488
1489427957.9503319263,1489427957.9526619911, -1.1423, -0.0232,  0.0386, -3.7689, -1.3733, -4.3488
1489427957.9527308941,1489427957.9550170898, -1.1423, -0.0232,  0.0388, -3.7689, -1.3733, -4.3488
1489427957.9550850391,1489427957.9573650360, -1.1387, -0.0322,  0.0388, -3.7689, -1.3733, -4.3488
1489427957.9574339390,1489427957.9597170353, -1.1387, -0.0322,  0.0388, -3.6926, -1.4801, -4.3335
1489427957.9597859383,1489427957.9621870518, -1.1387, -0.0322,  0.0388, -3.6926, -1.4801, -4.3335
1489427957.9622559547,1489427957.9646620750, -1.1387, -0.0322,  0.0388, -3.6926, -1.4801, -4.3335
1489427957.9647309780,1489427957.9671380520, -1.1387, -0.0322,  0.0388, -3.6926, -1.4801, -4.3335
1489427957.9672079086,1489427957.9696140289, -1.1387, -0.0322,  0.0388, -3.1433, -1.2665, -4.0894
1489427957.9696838856,1489427957.9721379280, -1.1387, -0.0322,  0.0388, -3.1433, -1.2665, -4.0894
1489427957.9722070694,1489427957.9746139050, -1.1387, -0.0322,  0.0388, -3.1433, -1.2665, -4.0894
1489427957.9746840000,1489427957.9770929813, -1.1392, -0.0342,  0.0442, -3.1433, -1.2665, -4.0894
1489427957.9771630764,1489427957.9795761108, -1.1392, -0.0342,  0.0442, -3.1433, -1.2665, -4.0588
1489427957.9796450138,1489427957.9820139408, -1.1392, -0.0342,  0.0442, -2.3956, -1.6937, -4.0588
1489427957.9820840359,1489427957.9843680859, -1.1392, -0.0342,  0.0442, -2.3956, -1.6937, -4.0588
1489427957.9844360352,1489427957.9867138863, -1.1392, -0.0342,  0.0442, -2.3956, -1.6937, -4.0588
1489427957.9867830276,1489427957.9890630245, -1.1392, -0.0342,  0.0442, -2.3956, -1.6937, -4.0588
1489427957.9892330170,1489427957.9915699959, -1.1392, -0.0342,  0.0442, -2.2888, -1.4343, -4.1351
1489427957.9916400909,1489427957.9939210415, -1.1392, -0.0342,  0.0442, -2.2888, -1.4343, -4.1351
1489427957.9939899445,1489427957.9962680340, -1.1335, -0.0286,  0.0361, -2.2888, -1.4343, -4.1351
1489427957.9963369370,1489427957.9986159801, -1.1335, -0.0286,  0.0361, -2.2888, -1.4343, -4.1351
1489427957.9986848831,1489427958.0009889603, -1.1335, -0.0286,  0.0361, -2.2888, -1.2207, -4.1351
1489427958.0010581017,1489427958.0034649372, -1.1335, -0.0286,  0.0361, -2.1515, -1.2207, -4.1351
1489427958.0035350323,1489427958.0059390068, -1.1335, -0.0286,  0.0361, -2.1515, -1.2207, -4.1351
1489427958.0060079098,1489427958.0084080696, -1.1335, -0.0286,  0.0361, -2.1515, -1.2207, -4.1351
1489427958.0084769726,1489427958.0108809471, -1.1335, -0.0286,  0.0361, -2.1515, -1.2207, -0.2289
1489427958.0110039711,1489427958.0134079456, -1.1335, -0.0286,  0.0361, -2.1515, -1.2360, -3.8147
1489427958.0134770870,1489427958.0158879757, -1.1353, -0.0347,  0.0430, -2.1515, -1.2360, -3.8147
1489427958.0159580708,1489427958.0183579922, -1.1353, -0.0347,  0.0430, -2.1515, -1.2360, -3.8147
1489427958.0184290409,1489427958.0208370686, -1.1353, -0.0347,  0.0430, -2.1515, -1.2360, -3.8147
1489427958.0209600925,1489427958.0233678818, -1.1353, -0.0347,  0.0430, -2.6550, -0.9308, -3.9368
1489427958.0234389305,1489427958.0258469582, -1.1353, -0.0347,  0.0430, -2.6550, -0.9308, -3.9368
1489427958.0259180069,1489427958.0283250809, -1.1353, -0.0347,  0.0430, -2.6550, -0.9308, -3.9368
1489427958.0283958912,1489427958.0307989120, -1.1353, -0.0347,  0.0430, -2.6550, -0.9308, -3.9368
1489427958.0308699608,1489427958.0331549644, -1.1353, -0.0347,  0.0430, -2.8076, -0.8850, -3.7689
1489427958.0332269669,1489427958.0355079174, -1.1353, -0.0352,  0.0396, -2.8076, -0.8850, -3.7689
1489427958.0355789661,1489427958.0378630161, -1.1306, -0.0352,  0.0396, -2.8076, -0.8850, -3.7689
1489427958.0379331112,1489427958.0402119160, -1.1306, -0.0352,  0.0396, -2.8076, -0.8850, -3.7689
1489427958.0402829647,1489427958.0426609516, -1.1306, -0.0352,  0.0396, -2.8076, -0.8850, -3.7689
1489427958.0427320004,1489427958.0451331139, -1.1306, -0.0352,  0.0396, -3.8300, -0.8545, -3.2806
1489427958.0452039242,1489427958.0476109982, -1.1306, -0.0352,  0.0396, -3.8300, -0.8545, -3.2806
1489427958.0476820469,1489427958.0500841141, -1.1306, -0.0352,  0.0396, -3.8300, -0.8545, -3.2806
1489427958.0501561165,1489427958.0525739193, -1.1306, -0.0352,  0.0396, -3.8300, -0.8545, -3.2806
1489427958.0526449680,1489427958.0550498962, -1.1306, -0.0352,  0.0300, -3.2654, -0.6104, -3.1738
1489427958.0551209450,1489427958.0575330257, -1.1296, -0.0330,  0.0300, -3.2654, -0.6104, -3.1738
1489427958.0576050282,1489427958.0600130558, -1.1296, -0.0330,  0.0300, -3.2654, -0.6104, -3.1738
1489427958.0600850582,1489427958.0625379086, -1.1296, -0.0330,  0.0300, -3.2654, -0.6104, -3.1738
1489427958.0626089573,1489427958.0650179386, -1.1296, -0.0330,  0.0300, -3.6316, -0.9918, -2.8839
1489427958.0650889874,1489427958.0674920082, -1.1296, -0.0330,  0.0300, -3.6316, -0.9918, -2.8839
1489427958.0675621033,1489427958.0699670315, -1.1296, -0.0330,  0.0300, -3.6316, -0.9918, -2.8839
1489427958.0700390339,1489427958.0724530220, -1.1296, -0.0330,  0.0300, -3.6316, -0.9918, -2.8839
1489427958.0725231171,1489427958.0749230385, -1.1296, -0.0330,  0.0300, -3.6316, -1.0071, -2.5635
1489427958.0749928951,1489427958.0773949623, -1.1316, -0.0378,  0.0532, -3.8452, -1.0071, -2.5635
1489427958.0774641037,1489427958.0798668861, -1.1316, -0.0378,  0.0532, -3.8452, -1.0071, -2.5635
1489427958.0799369812,1489427958.0822799206, -1.1316, -0.0378,  0.0532, -3.8452, -1.0071, -2.5635
1489427958.0823500156,1489427958.0846300125, -1.1316, -0.0378,  0.0532, -3.8452, -1.0071, -2.5635
1489427958.0846989155,1489427958.0869810581, -1.1316, -0.0378,  0.0532, -3.8147, -0.9613, -1.9836
1489427958.0870509148,1489427958.0893371105, -1.1316, -0.0378,  0.0532, -3.8147, -0.9613, -1.9836
1489427958.0894079208,1489427958.0917680264, -1.1316, -0.0378,  0.0532, -3.8147, -0.9613, -1.9836
1489427958.0919458866,1489427958.0943410397, -1.1316, -0.0378,  0.0532, -3.8147, -0.9613, -1.9836
1489427958.0944120884,1489427958.0968070030, -1.1331, -0.0361,  0.0442, -4.1199, -0.4883, -1.7853
1489427958.0968780518,1489427958.0992739201, -1.1331, -0.0361,  0.0442, -4.1199, -0.4883, -1.7853
1489427958.0993449688,1489427958.1017799377, -1.1331, -0.0361,  0.0442, -4.1199, -0.4883, -1.7853
1489427958.1018509865,1489427958.1042480469, -1.1331, -0.0361,  0.0442, -4.1199, -0.4883, -1.7853
1489427958.1043179035,1489427958.1067149639, -1.1331, -0.0361,  0.0442, -4.1199, -0.7324, -1.4648
1489427958.1067850590,1489427958.1091880798, -1.1331, -0.0361,  0.0442, -4.2572, -0.7324, -1.4648
1489427958.1092600822,1489427958.1116600037, -1.1331, -0.0361,  0.0442, -4.2572, -0.7324, -1.4648
1489427958.1117310524,1489427958.1140971184, -1.1331, -0.0361,  0.0442, -4.2572, -0.7324, -1.4648
1489427958.1141679287,1489427958.1165390015, -1.1350, -0.0317,  0.0283, -4.2572, -0.7324, -1.4648
1489427958.1166090965,1489427958.1189780235, -1.1350, -0.0317,  0.0283, -4.5929, -0.4425, -1.4038
1489427958.1190490723,1489427958.1214261055, -1.1350, -0.0317,  0.0283, -4.5929, -0.4425, -1.4038
1489427958.1214969158,1489427958.1239020824, -1.1350, -0.0317,  0.0283, -4.5929, -0.4425, -1.4038
1489427958.1239719391,1489427958.1263759136, -1.1350, -0.0317,  0.0283, -4.5929, -0.4425, -1.4038
1489427958.1264460087,1489427958.1288509369, -1.1350, -0.0317,  0.0283, -4.5013, -0.3357, -1.0376
1489427958.1289210320,1489427958.1313169003, -1.1350, -0.0317,  0.0283, -4.5013, -0.3357, -1.0376
1489427958.1313879490,1489427958.1336710453, -1.1350, -0.0317,  0.0283, -4.5013, -0.3357, -1.0376
1489427958.1337409019,1489427958.1360299587, -1.1326, -0.0271,  0.0535, -4.5013, -0.3357, -1.0376
1489427958.1361010075,1489427958.1383850574, -1.1326, -0.0271,  0.0535, -4.5013, -0.3967, -0.9003
1489427958.1384561062,1489427958.1407349110, -1.1326, -0.0271,  0.0535, -4.2572, -0.3967, -0.9003
1489427958.1408059597,1489427958.1443018913, -1.1326, -0.0271,  0.0535, -4.2572, -0.3967, -0.9003
1489427958.1443970203,1489427958.1478400230, -1.1326, -0.0271,  0.0535, -4.2572, -0.3967, -0.9003
1489427958.1479210854,1489427958.1511759758, -1.1326, -0.0271,  0.0535, -3.8147, -0.2747, -0.5035
1489427958.1512560844,1489427958.1539990902, -1.1326, -0.0271,  0.0535, -3.8147, -0.2747, -0.5035
1489427958.1540920734,1489427958.1564860344, -1.1348, -0.0327,  0.0454, -3.8147, -0.2747, -0.5035
1489427958.1565580368,1489427958.1589529514, -1.1348, -0.0327,  0.0454, -3.8147, -0.2747, -0.6256
1489427958.1590240002,1489427958.1614270210, -1.1348, -0.0327,  0.0454, -3.3112,  0.2289, -0.6256
1489427958.1614990234,1489427958.1638960838, -1.1348, -0.0327,  0.0454, -3.3112,  0.2289, -0.6256
1489427958.1639659405,1489427958.1663548946, -1.1348, -0.0327,  0.0454, -3.3112,  0.2289, -0.6256
1489427958.1664259434,1489427958.1688189507, -1.1348, -0.0327,  0.0454, -3.3112,  0.2289, -0.6256
1489427958.1688899994,1489427958.1713459492, -1.1348, -0.0327,  0.0454, -3.5400, -0.0763, -0.4272
1489427958.1714169979,1489427958.1738109589, -1.1348, -0.0327,  0.0454, -3.5400, -0.0763, -0.4272
1489427958.1738820076,1489427958.1762759686, -1.1282, -0.0247,  0.0435, -3.5400, -0.0763, -0.4272
1489427958.1763479710,1489427958.1787409782, -1.1282, -0.0247,  0.0435, -3.5400, -0.0763, -0.4272
1489427958.1788129807,1489427958.1812140942, -1.1282, -0.0247,  0.0435, -3.4485, -0.0153, -0.1831
1489427958.1812849045,1489427958.1836769581, -1.1282, -0.0247,  0.0435, -3.4485, -0.0153, -0.1831
1489427958.1837470531,1489427958.1861410141, -1.1282, -0.0247,  0.0435, -3.4485, -0.0153, -0.1831
1489427958.1862120628,1489427958.1886041164, -1.1282, -0.0247,  0.0435, -3.4485, -0.0153, -0.1831
1489427958.1886749268,1489427958.1910719872, -1.1282, -0.0247,  0.0435, -3.4485,  3.8910, -0.7935
1489427958.1911430359,1489427958.1935520172, -1.1282, -0.0247,  0.0435, -3.4027,  0.3357, -0.7935
1489427958.1936240196,1489427958.1960248947, -1.1282, -0.0139,  0.0410, -3.4027,  0.3357, -0.7935
1489427958.1960968971,1489427958.1985011101, -1.1362, -0.0139,  0.0410, -3.4027,  0.3357, -0.7935
1489427958.1987249851,1489427958.2011411190, -1.1362, -0.0139,  0.0410, -3.4027,  0.3357, -0.7935
1489427958.2012128830,1489427958.2036221027, -1.1362, -0.0139,  0.0410, -3.6011, -0.0305, -0.6409
1489427958.2036941051,1489427958.2060930729, -1.1362, -0.0139,  0.0410, -3.6011, -0.0305, -0.6409
1489427958.2061638832,1489427958.2085690498, -1.1362, -0.0139,  0.0410, -3.6011, -0.0305, -0.6409
1489427958.2086410522,1489427958.2110540867, -1.1362, -0.0139,  0.0410, -3.6011, -0.0305, -0.6409
1489427958.2111248970,1489427958.2135300636, -1.1362, -0.0139,  0.0410, -4.3488,  0.0458, -1.0681
1489427958.2136011124,1489427958.2160050869, -1.1362, -0.0203,  0.0415, -4.3488,  0.0458, -1.0681
1489427958.2160758972,1489427958.2184860706, -1.1379, -0.0203,  0.0415, -4.3488,  0.0458, -1.0681
1489427958.2185568810,1489427958.2209689617, -1.1379, -0.0203,  0.0415, -4.3488,  0.0458, -1.0681
1489427958.2210409641,1489427958.2234480381, -1.1379, -0.0203,  0.0415, -4.6997, -0.2289, -1.0071
1489427958.2235190868,1489427958.2259171009, -1.1379, -0.0203,  0.0415, -4.6997, -0.2289, -1.0071
1489427958.2259879112,1489427958.2283918858, -1.1379, -0.0203,  0.0415, -4.6997, -0.2289, -1.0071
1489427958.2284629345,1489427958.2308681011, -1.1379, -0.0203,  0.0415, -4.6997, -0.2289, -1.0071
1489427958.2309920788,1489427958.2332758904, -1.1379, -0.0203,  0.0415, -4.6997,  3.6774, -1.6632
1489427958.2333459854,1489427958.2356278896, -1.1379, -0.0203,  0.0383, -4.8981,  0.0610, -1.6632
1489427958.2356979847,1489427958.2379789352, -1.1313, -0.0198,  0.0383, -4.8981,  0.0610, -1.6632
1489427958.2380490303,1489427958.2403318882, -1.1313, -0.0198,  0.0383, -4.8981,  0.0610, -1.6632
1489427958.2404019833,1489427958.2427010536, -1.1313, -0.0198,  0.0383, -4.8981,  0.0610, -1.6632
1489427958.2427721024,1489427958.2450489998, -1.1313, -0.0198,  0.0383, -4.4861,  0.3662, -1.8768
1489427958.2451200485,1489427958.2474009991, -1.1313, -0.0198,  0.0383, -4.4861,  0.3662, -1.8768
1489427958.2474720478,1489427958.2497489452, -1.1313, -0.0198,  0.0383, -4.4861,  0.3662, -1.8768
1489427958.2498190403,1489427958.2521920204, -1.1313, -0.0198,  0.0383, -4.4861,  0.3662, -1.8768
1489427958.2522630692,1489427958.2546679974, -1.1313, -0.0198,  0.0383, -4.4861, -0.0610, -1.8158
1489427958.2547380924,1489427958.2571430206, -1.1350, -0.0232,  0.0483, -4.5624, -0.0610, -1.8158
1489427958.2572131157,1489427958.2596230507, -1.1350, -0.0232,  0.0483, -4.5624, -0.0610, -1.8158
1489427958.2596940994,1489427958.2621459961, -1.1350, -0.0232,  0.0483, -4.5624, -0.0610, -1.8158
1489427958.2622160912,1489427958.2646229267, -1.1350, -0.0232,  0.0483, -4.5624, -0.0610, -1.8158
1489427958.2646930218,1489427958.2670969963, -1.1350, -0.0232,  0.0483, -4.4708, -0.5798, -1.8311
1489427958.2671680450,1489427958.2695739269, -1.1350, -0.0232,  0.0483, -4.4708, -0.5798, -1.8311
1489427958.2696449757,1489427958.2720570564, -1.1350, -0.0232,  0.0483, -4.4708, -0.5798, -1.8311
1489427958.2721281052,1489427958.2745289803, -1.1350, -0.0232,  0.0483, -4.4708, -0.5798, -1.8311
1489427958.2746000290,1489427958.2770040035, -1.1353, -0.0183,  0.0491, -5.0354, -0.3510, -1.9531
1489427958.2770760059,1489427958.2794759274, -1.1353, -0.0183,  0.0491, -5.0354, -0.3510, -1.9531
1489427958.2795469761,1489427958.2819159031, -1.1353, -0.0183,  0.0491, -5.0354, -0.3510, -1.9531
1489427958.2819869518,1489427958.2842690945, -1.1353, -0.0183,  0.0491, -5.0354, -0.3510, -1.9531
1489427958.2843410969,1489427958.2866261005, -1.1353, -0.0183,  0.0491, -4.6539, -0.0916, -1.8311
1489427958.2866969109,1489427958.2889840603, -1.1353, -0.0183,  0.0491, -4.6539, -0.0916, -1.8311
1489427958.2890539169,1489427958.2913880348, -1.1353, -0.0183,  0.0491, -4.6539, -0.0916, -1.8311
1489427958.2914590836,1489427958.2938590050, -1.1353, -0.0183,  0.0491, -4.6539, -0.0916, -1.8311
1489427958.2939300537,1489427958.2963340282, -1.1365, -0.0212,  0.0432, -4.6539, -0.0916, -1.8311
1489427958.2964050770,1489427958.2988080978, -1.1365, -0.0212,  0.0432, -4.4250,  0.3510, -1.9073
1489427958.2988801003,1489427958.3012859821, -1.1365, -0.0212,  0.0432, -4.4250,  0.3510, -1.9073
1489427958.3014729023,1489427958.3038818836, -1.1365, -0.0212,  0.0432, -4.4250,  0.3510, -1.9073
1489427958.3039529324,1489427958.3063600063, -1.1365, -0.0212,  0.0432, -4.4250,  0.3510, -1.9073
1489427958.3064310551,1489427958.3088378906, -1.1365, -0.0212,  0.0432, -3.9062, -0.1984, -1.6022
1489427958.3089089394,1489427958.3113551140, -1.1365, -0.0212,  0.0432, -3.9062, -0.1984, -1.6022
1489427958.3114259243,1489427958.3138360977, -1.1365, -0.0212,  0.0432, -3.9062, -0.1984, -1.6022
1489427958.3139059544,1489427958.3163108826, -1.1365, -0.0222,  0.0491, -3.9062, -0.1984, -1.6022
1489427958.3163819313,1489427958.3187880516, -1.1399, -0.0222,  0.0491, -4.0588,  0.0610, -1.7548
1489427958.3188579082,1489427958.3212630749, -1.1399, -0.0222,  0.0491, -4.0588,  0.0610, -1.7548
1489427958.3213338852,1489427958.3237340450, -1.1399, -0.0222,  0.0491, -4.0588,  0.0610, -1.7548
1489427958.3238039017,1489427958.3262100220, -1.1399, -0.0222,  0.0491, -4.0588,  0.0610, -1.7548
1489427958.3262810707,1489427958.3286869526, -1.1399, -0.0222,  0.0491, -4.0588, -0.4425, -1.2970
1489427958.3287589550,1489427958.3311638832, -1.1399, -0.0222,  0.0491, -4.1504, -0.4425, -1.2970
1489427958.3312349319,1489427958.3335139751, -1.1399, -0.0222,  0.0491, -4.1504, -0.4425, -1.2970
1489427958.3335850239,1489427958.3358700275, -1.1399, -0.0132,  0.0347, -4.1504, -0.4425, -1.2970
1489427958.3359398842,1489427958.3382220268, -1.1418, -0.0132,  0.0347, -4.1504, -0.4425, -1.2970
1489427958.3382918835,1489427958.3405709267, -1.1418, -0.0132,  0.0347, -4.3488, -0.0916, -1.2512
1489427958.3406410217,1489427958.3430418968, -1.1418, -0.0132,  0.0347, -4.3488, -0.0916, -1.2512
1489427958.3431129456,1489427958.3455231190, -1.1418, -0.0132,  0.0347, -4.3488, -0.0916, -1.2512
1489427958.3455939293,1489427958.3480029106, -1.1418, -0.0132,  0.0347, -4.3488, -0.0916, -1.2512
1489427958.3480739594,1489427958.3504750729, -1.1418, -0.0132,  0.0347, -4.8828, -0.3357, -1.2512
1489427958.3505458832,1489427958.3529639244, -1.1418, -0.0132,  0.0347, -4.8828, -0.3357, -1.2512
1489427958.3530340195,1489427958.3554439545, -1.1418, -0.0132,  0.0422, -4.8828, -0.3357, -1.2512
1489427958.3555150032,1489427958.3579199314, -1.1414, -0.0156,  0.0422, -4.8828, -0.3357, -1.2512
1489427958.3579909801,1489427958.3604009151, -1.1414, -0.0156,  0.0422, -4.8828, -0.4578, -1.3733
1489427958.3604719639,1489427958.3628990650, -1.1414, -0.0156,  0.0422, -4.9438, -0.4578, -1.3733
1489427958.3629689217,1489427958.3653740883, -1.1414, -0.0156,  0.0422, -4.9438, -0.4578, -1.3733
1489427958.3654448986,1489427958.3678529263, -1.1414, -0.0156,  0.0422, -4.9438, -0.4578, -1.3733
1489427958.3679230213,1489427958.3703289032, -1.1414, -0.0156,  0.0422, -4.9438, -0.4578, -1.3733
1489427958.3703999519,1489427958.3728079796, -1.1414, -0.0156,  0.0422, -4.8676, -0.4120, -1.4343
1489427958.3728790283,1489427958.3752870560, -1.1414, -0.0156,  0.0422, -4.8676, -0.4120, -1.4343
1489427958.3753581047,1489427958.3777680397, -1.1433, -0.0139,  0.0334, -4.8676, -0.4120, -1.4343
1489427958.3778378963,1489427958.3802430630, -1.1433, -0.0139,  0.0334, -4.8676, -0.4120, -1.4343
1489427958.3803129196,1489427958.3826820850, -1.1433, -0.0139,  0.0334, -4.7455, -0.6256, -1.2512
1489427958.3827519417,1489427958.3850350380, -1.1433, -0.0139,  0.0334, -4.7455, -0.6256, -1.2512
1489427958.3851048946,1489427958.3873860836, -1.1433, -0.0139,  0.0334, -4.7455, -0.6256, -1.2512
1489427958.3874559402,1489427958.3897380829, -1.1433, -0.0139,  0.0334, -4.7455, -0.6256, -1.2512
1489427958.3898069859,1489427958.3921940327, -1.1433, -0.0139,  0.0334, -4.7455, -0.3967, -1.4954
1489427958.3922650814,1489427958.3946719170, -1.1433, -0.0139,  0.0334, -4.8065, -0.3967, -1.4954
1489427958.3947429657,1489427958.3971450329, -1.1389, -0.0110,  0.0369, -4.8065, -0.3967, -1.4954
1489427958.3972160816,1489427958.3996200562, -1.1389, -0.0110,  0.0369, -4.8065, -0.3967, -1.4954
1489427958.3996911049,1489427958.4021909237, -1.1389, -0.0110,  0.0369, -4.8065, -0.3967, -1.4648
1489427958.4022619724,1489427958.4046669006, -1.1389, -0.0110,  0.0369, -4.9133, -0.2289, -1.4648
1489427958.4048490524,1489427958.4072589874, -1.1389, -0.0110,  0.0369, -4.9133, -0.2289, -1.4648
1489427958.4073300362,1489427958.4097299576, -1.1389, -0.0110,  0.0369, -4.9133, -0.2289, -1.4648
1489427958.4098000526,1489427958.4122099876, -1.1389, -0.0110,  0.0369, -4.9133, -0.2289, -1.4648
1489427958.4122810364,1489427958.4146890640, -1.1389, -0.0110,  0.0369, -5.1575, -0.4425, -1.7700
1489427958.4147601128,1489427958.4171650410, -1.1348, -0.0100,  0.0393, -5.1575, -0.4425, -1.7700
1489427958.4172360897,1489427958.4196391106, -1.1348, -0.0100,  0.0393, -5.1575, -0.4425, -1.7700
1489427958.4197099209,1489427958.4221510887, -1.1348, -0.0100,  0.0393, -5.1575, -0.4425, -1.7700
1489427958.4222218990,1489427958.4246280193, -1.1348, -0.0100,  0.0393, -5.3864, -0.6256, -2.2736
1489427958.4246990681,1489427958.4271008968, -1.1348, -0.0100,  0.0393, -5.3864, -0.6256, -2.2736
1489427958.4271728992,1489427958.4295771122, -1.1348, -0.0100,  0.0393, -5.3864, -0.6256, -2.2736
1489427958.4296479225,1489427958.4319911003, -1.1348, -0.0100,  0.0393, -5.3864, -0.6256, -2.2736
1489427958.4320609570,1489427958.4343469143, -1.1348, -0.0100,  0.0393, -5.3864, -1.1444, -2.0294
1489427958.4344170094,1489427958.4366970062, -1.1382, -0.0151,  0.0481, -5.6610, -1.1444, -2.0294
1489427958.4367659092,1489427958.4390530586, -1.1382, -0.0151,  0.0481, -5.6610, -1.1444, -2.0294
1489427958.4391219616,1489427958.4414439201, -1.1382, -0.0151,  0.0481, -5.6610, -1.1444, -2.0294
1489427958.4415140152,1489427958.4439189434, -1.1382, -0.0151,  0.0481, -5.6610, -1.1444, -2.0294
1489427958.4439899921,1489427958.4463961124, -1.1382, -0.0151,  0.0481, -5.7983, -1.4648, -1.5564
1489427958.4464659691,1489427958.4488720894, -1.1382, -0.0151,  0.0481, -5.7983, -1.4648, -1.5564
1489427958.4489409924,1489427958.4513568878, -1.1382, -0.0151,  0.0481, -5.7983, -1.4648, -1.5564
1489427958.4514260292,1489427958.4538359642, -1.1382, -0.0151,  0.0481, -5.7983, -1.4648, -1.5564
1489427958.4539051056,1489427958.4563140869, -1.1382, -0.0132,  0.0364, -5.5847, -1.1139, -1.6632
1489427958.4563829899,1489427958.4587950706, -1.1411, -0.0132,  0.0364, -5.5847, -1.1139, -1.6632
1489427958.4588639736,1489427958.4612751007, -1.1411, -0.0132,  0.0364, -5.5847, -1.1139, -1.6632
1489427958.4613449574,1489427958.4637510777, -1.1411, -0.0132,  0.0364, -5.5847, -1.1139, -1.6632
1489427958.4638209343,1489427958.4662239552, -1.1411, -0.0132,  0.0364, -5.5847, -1.0529, -1.8158
1489427958.4662940502,1489427958.4686930180, -1.1411, -0.0132,  0.0364, -6.1798, -1.0529, -1.8158
1489427958.4687640667,1489427958.4712018967, -1.1411, -0.0132,  0.0364, -6.1798, -1.0529, -1.8158
1489427958.4712719917,1489427958.4736790657, -1.1411, -0.0132,  0.0364, -6.1798, -1.0529, -1.8158
1489427958.4737479687,1489427958.4761528969, -1.1411, -0.0090,  0.0261, -6.1798, -1.0529, -2.1820
1489427958.4762239456,1489427958.4786319733, -1.1357, -0.0090,  0.0261, -6.6528, -1.1749, -2.1820
1489427958.4787020683,1489427958.4811570644, -1.1357, -0.0090,  0.0261, -6.6528, -1.1749, -2.1820
1489427958.4812259674,1489427958.4835109711, -1.1357, -0.0090,  0.0261, -6.6528, -1.1749, -2.1820
1489427958.4835820198,1489427958.4858670235, -1.1357, -0.0090,  0.0261, -6.6528, -1.1749, -2.1820
1489427958.4859371185,1489427958.4882130623, -1.1357, -0.0090,  0.0261, -6.5613, -1.4801, -2.3193
1489427958.4882819653,1489427958.4905641079, -1.1357, -0.0090,  0.0261, -6.5613, -1.4801, -2.3193
1489427958.4906339645,1489427958.4929220676, -1.1357, -0.0090,  0.0261, -6.5613, -1.4801, -2.3193
1489427958.4929919243,1489427958.4952719212, -1.1357, -0.0090,  0.0261, -6.5613, -1.4801, -2.3193
1489427958.4953429699,1489427958.4976220131, -1.1335, -0.0132,  0.0442, -6.5613, -1.4801, -1.7853
1489427958.4976909161,1489427958.4999730587, -1.1335, -0.0132,  0.0442, -6.4240, -1.6785, -1.7853
1489427958.5000419617,1489427958.5024220943, -1.1335, -0.0132,  0.0442, -6.4240, -1.6785, -1.7853
1489427958.5024929047,1489427958.5049018860, -1.1335, -0.0132,  0.0442, -6.4240, -1.6785, -1.7853
1489427958.5050709248,1489427958.5074789524, -1.1335, -0.0132,  0.0442, -6.4240, -1.6785, -1.7853
1489427958.5075490475,1489427958.5099570751, -1.1335, -0.0132,  0.0442, -5.9052, -1.9379, -1.7700
1489427958.5100259781,1489427958.5124480724, -1.1335, -0.0132,  0.0442, -5.9052, -1.9379, -1.7700
1489427958.5125169754,1489427958.5149230957, -1.1335, -0.0132,  0.0442, -5.9052, -1.9379, -1.7700
1489427958.5149919987,1489427958.5173981190, -1.1353, -0.0081,  0.0400, -5.9052, -1.9379, -1.7700
1489427958.5174689293,1489427958.5198740959, -1.1353, -0.0081,  0.0400, -5.8289, -1.6937, -1.8616
1489427958.5199460983,1489427958.5223600864, -1.1353, -0.0081,  0.0400, -5.8289, -1.6937, -1.8616
1489427958.5224308968,1489427958.5248379707, -1.1353, -0.0081,  0.0400, -5.8289, -1.6937, -1.8616
1489427958.5249090195,1489427958.5273189545, -1.1353, -0.0081,  0.0400, -5.8289, -1.6937, -1.8616
1489427958.5273890495,1489427958.5297930241, -1.1353, -0.0081,  0.0400, -6.8207, -1.4648, -1.9989
1489427958.5298640728,1489427958.5322721004, -1.1353, -0.0081,  0.0400, -6.8207, -1.4648, -1.9989
1489427958.5323441029,1489427958.5347480774, -1.1353, -0.0081,  0.0400, -6.8207, -1.4648, -1.9989
1489427958.5348200798,1489427958.5372259617, -1.1304, -0.0159,  0.0427, -6.8207, -1.4648, -1.9989
1489427958.5372970104,1489427958.5397009850, -1.1304, -0.0159,  0.0427, -6.8207, -1.4648, -2.0142
1489427958.5397710800,1489427958.5421299934, -1.1304, -0.0159,  0.0427, -7.0190, -1.4648, -2.0142
1489427958.5422000885,1489427958.5444839001, -1.1304, -0.0159,  0.0427, -7.0190, -1.4648, -2.0142
1489427958.5445530415,1489427958.5468339920, -1.1304, -0.0159,  0.0427, -7.0190, -1.4648, -2.0142
1489427958.5469040871,1489427958.5491819382, -1.1304, -0.0159,  0.0427, -7.0190, -1.4648, -2.0142
1489427958.5492520332,1489427958.5515959263, -1.1304, -0.0159,  0.0427, -7.0801, -1.5869, -1.7395
1489427958.5516650677,1489427958.5540699959, -1.1304, -0.0159,  0.0427, -7.0801, -1.5869, -1.7395
1489427958.5541400909,1489427958.5565509796, -1.0679, -0.0198,  0.0564, -7.0801, -1.5869, -1.7395
1489427958.5566210747,1489427958.5590291023, -1.1238, -0.0198,  0.0564, -7.0801, -1.5869, -1.7395
1489427958.5590980053,1489427958.5615539551, -1.1238, -0.0198,  0.0564, -6.6681, -1.5106, -1.4191
1489427958.5616240501,1489427958.5640299320, -1.1238, -0.0198,  0.0564, -6.6681, -1.5106, -1.4191
1489427958.5640990734,1489427958.5664999485, -1.1238, -0.0198,  0.0564, -6.6681, -1.5106, -1.4191
1489427958.5665700436,1489427958.5689749718, -1.1238, -0.0198,  0.0564, -6.6681, -1.5106, -1.4191
1489427958.5690441132,1489427958.5714569092, -1.1238, -0.0198,  0.0564, -6.6681, -1.5106, -1.7242
1489427958.5715270042,1489427958.5739281178, -1.1238, -0.0198,  0.0564, -6.4697, -2.1210, -1.7242
1489427958.5739989281,1489427958.5763978958, -1.1238, -0.0210,  0.0505, -6.4697, -2.1210, -1.7242
1489427958.5764679909,1489427958.5788729191, -1.1355, -0.0210,  0.0505, -6.4697, -2.1210, -1.7242
1489427958.5789420605,1489427958.5813601017, -1.1355, -0.0210,  0.0505, -6.4697, -2.1210, -1.7242
1489427958.5814299583,1489427958.5838339329, -1.1355, -0.0210,  0.0505, -6.7139, -1.9989, -1.0834
1489427958.5839030743,1489427958.5863111019, -1.1355, -0.0210,  0.0505, -6.7139, -1.9989, -1.0834
1489427958.5863800049,1489427958.5887849331, -1.1355, -0.0210,  0.0505, -6.7139, -1.9989, -1.0834
1489427958.5888550282,1489427958.5912539959, -1.1355, -0.0210,  0.0505, -6.7139, -1.9989, -1.0834
1489427958.5913228989,1489427958.5936069489, -1.1355, -0.0210,  0.0505, -6.6223, -1.7090, -0.4425
1489427958.5936770439,1489427958.5959589481, -1.1355, -0.0210,  0.0361, -6.6223, -1.7090, -0.4425
1489427958.5960290432,1489427958.5983080864, -1.1392, -0.0051,  0.0361, -6.6223, -1.7090, -0.4425
1489427958.5983788967,1489427958.6006610394, -1.1392, -0.0051,  0.0361, -6.6223, -1.7090, -0.4425
1489427958.6007330418,1489427958.6031739712, -1.1392, -0.0051,  0.0361, -6.6223, -1.7090, -0.4578
1489427958.6032450199,1489427958.6056520939, -1.1392, -0.0051,  0.0361, -7.4463, -1.7090, -0.4578
1489427958.6057229042,1489427958.6081309319, -1.1392, -0.0051,  0.0361, -7.4463, -1.7090, -0.4578
1489427958.6083068848,1489427958.6107180119, -1.1392, -0.0051,  0.0361, -7.4463, -1.7090, -0.4578
1489427958.6107890606,1489427958.6132059097, -1.1392, -0.0051,  0.0361, -7.4463, -1.7090, -0.4578
1489427958.6132779121,1489427958.6156818867, -1.1392, -0.0051,  0.0361, -8.1635, -2.2430, -0.6866
1489427958.6157550812,1489427958.6181600094, -1.1458, -0.0154,  0.0498, -8.1635, -2.2430, -0.6866
1489427958.6182320118,1489427958.6206369400, -1.1458, -0.0154,  0.0498, -8.1635, -2.2430, -0.6866
1489427958.6207089424,1489427958.6230559349, -1.1458, -0.0154,  0.0498, -8.1635, -2.2430, -0.6866
1489427958.6231288910,1489427958.6254150867, -1.1458, -0.0154,  0.0498, -7.9193, -2.5330, -0.5035
1489427958.6254858971,1489427958.6277649403, -1.1458, -0.0154,  0.0498, -7.9193, -2.5330, -0.5035
1489427958.6278359890,1489427958.6301209927, -1.1458, -0.0154,  0.0498, -7.9193, -2.5330, -0.5035
1489427958.6301920414,1489427958.6325891018, -1.1458, -0.0154,  0.0498, -7.9193, -2.5330, -0.5035
1489427958.6326599121,1489427958.6350660324, -1.1458, -0.0154,  0.0498, -7.9193, -2.5330, -0.2899
1489427958.6351358891,1489427958.6375451088, -1.1313, -0.0024,  0.0349, -7.5073, -2.9144, -0.2899
1489427958.6376171112,1489427958.6400249004, -1.1313, -0.0024,  0.0349, -7.5073, -2.9144, -0.2899
1489427958.6400949955,1489427958.6424810886, -1.1313, -0.0024,  0.0349, -7.5073, -2.9144, -0.2899
1489427958.6425518990,1489427958.6448359489, -1.1313, -0.0024,  0.0349, -7.5073, -2.9144, -0.2899
1489427958.6449060440,1489427958.6471869946, -1.1313, -0.0024,  0.0349, -7.3700, -3.3722, -0.9918
1489427958.6472580433,1489427958.6495389938, -1.1313, -0.0024,  0.0349, -7.3700, -3.3722, -0.9918
1489427958.6496100426,1489427958.6519880295, -1.1313, -0.0024,  0.0349, -7.3700, -3.3722, -0.9918
1489427958.6520600319,1489427958.6544709206, -1.1313, -0.0024,  0.0349, -7.3700, -3.3722, -0.9918
1489427958.6545419693,1489427958.6569480896, -1.1296, -0.0034,  0.0376, -7.5378, -3.6316, -1.4191
1489427958.6570179462,1489427958.6594209671, -1.1296, -0.0034,  0.0376, -7.5378, -3.6316, -1.4191
1489427958.6594910622,1489427958.6619369984, -1.1296, -0.0034,  0.0376, -7.5378, -3.6316, -1.4191
1489427958.6620070934,1489427958.6644170284, -1.1296, -0.0034,  0.0376, -7.5378, -3.6316, -1.4191
1489427958.6644880772,1489427958.6668961048, -1.1296, -0.0034,  0.0376, -7.5378, -3.9825, -2.2125
1489427958.6669659615,1489427958.6693680286, -1.1296, -0.0034,  0.0376, -7.6141, -3.9825, -2.2125
1489427958.6694378853,1489427958.6718490124, -1.1296, -0.0034,  0.0376, -7.6141, -3.9825, -2.2125
1489427958.6719179153,1489427958.6743268967, -1.1296, -0.0034,  0.0376, -7.6141, -3.9825, -2.2125
1489427958.6743960381,1489427958.6768000126, -1.1296, -0.0034,  0.0505, -7.6141, -3.9825, -2.2125
1489427958.6768710613,1489427958.6792728901, -1.1367, -0.0034,  0.0505, -7.4463, -4.2267, -2.7466
1489427958.6793429852,1489427958.6817579269, -1.1367, -0.0034,  0.0505, -7.4463, -4.2267, -2.7466
1489427958.6818280220,1489427958.6842350960, -1.1367, -0.0034,  0.0505, -7.4463, -4.2267, -2.7466
1489427958.6843049526,1489427958.6867120266, -1.1367, -0.0034,  0.0505, -7.4463, -4.2267, -2.7466
1489427958.6867818832,1489427958.6891870499, -1.1367, -0.0034,  0.0505, -7.2632, -4.5471, -2.7618
1489427958.6892559528,1489427958.6916310787, -1.1367, -0.0034,  0.0505, -7.2632, -4.5471, -2.7618
1489427958.6917009354,1489427958.6939809322, -1.1367, -0.0034,  0.0505, -7.2632, -4.5471, -2.7618
1489427958.6940510273,1489427958.6963338852, -1.1367, -0.0034,  0.0466, -7.2632, -4.5471, -2.7618
1489427958.6964030266,1489427958.6986849308, -1.1423, -0.0156,  0.0466, -7.2632, -5.1117, -2.5787
1489427958.6987550259,1489427958.7010569572, -1.1423, -0.0156,  0.0466, -7.0343, -5.1117, -2.5787
1489427958.7011260986,1489427958.7035300732, -1.1423, -0.0156,  0.0466, -7.0343, -5.1117, -2.5787
1489427958.7035989761,1489427958.7060050964, -1.1423, -0.0156,  0.0466, -7.0343, -5.1117, -2.5787
1489427958.7060739994,1489427958.7084798813, -1.1423, -0.0156,  0.0466, -7.0343, -5.1117, -2.5787
1489427958.7085490227,1489427958.7109670639, -1.1423, -0.0156,  0.0466, -6.5613, -5.5237, -2.1667
1489427958.7111430168,1489427958.7135488987, -1.1423, -0.0156,  0.0466, -6.5613, -5.5237, -2.1667
1489427958.7136189938,1489427958.7160210609, -1.1423, -0.0156,  0.0610, -6.5613, -5.5237, -2.1667
1489427958.7160909176,1489427958.7184948921, -1.1379, -0.0073,  0.0610, -6.5613, -5.5237, -2.1667
1489427958.7185649872,1489427958.7209830284, -1.1379, -0.0073,  0.0610, -6.1951, -5.8441, -1.8463
1489427958.7210540771,1489427958.7234630585, -1.1379, -0.0073,  0.0610, -6.1951, -5.8441, -1.8463
1489427958.7235341072,1489427958.7259409428, -1.1379, -0.0073,  0.0610, -6.1951, -5.8441, -1.8463
1489427958.7260110378,1489427958.7284200191, -1.1379, -0.0073,  0.0610, -6.1951, -5.8441, -1.8463
1489427958.7284901142,1489427958.7308919430, -1.1379, -0.0073,  0.0610, -5.5847, -6.0730, -1.7853
1489427958.7310020924,1489427958.7334339619, -1.1379, -0.0073,  0.0610, -5.5847, -6.0730, -1.7853
1489427958.7335050106,1489427958.7359120846, -1.1379, -0.0073,  0.0610, -5.5847, -6.0730, -1.7853
1489427958.7359819412,1489427958.7383921146, -1.1416,  0.0007,  0.0474, -5.5847, -6.0730, -1.7853
1489427958.7384619713,1489427958.7408649921, -1.1416,  0.0007,  0.0474, -5.5847, -6.1035, -1.6174
1489427958.7409839630,1489427958.7432680130, -1.1416,  0.0007,  0.0474, -4.8218, -6.1035, -1.6174
1489427958.7433381081,1489427958.7456219196, -1.1416,  0.0007,  0.0474, -4.8218, -6.1035, -1.6174
1489427958.7456920147,1489427958.7479779720, -1.1416,  0.0007,  0.0474, -4.8218, -6.1035, -1.6174
1489427958.7480471134,1489427958.7503280640, -1.1416,  0.0007,  0.0474, -4.8218, -6.1035, -1.6174
1489427958.7503979206,1489427958.7526810169, -1.1416,  0.0007,  0.0474, -4.8370, -6.4392, -1.4801
1489427958.7527499199,1489427958.7550270557, -1.1416,  0.0007,  0.0474, -4.8370, -6.4392, -1.4801
1489427958.7550959587,1489427958.7573759556, -1.1389, -0.0105,  0.0486, -4.8370, -6.4392, -1.4801
1489427958.7574439049,1489427958.7597239017, -1.1389, -0.0105,  0.0486, -4.8370, -6.4392, -1.4801
1489427958.7597930431,1489427958.7621929646, -1.1389, -0.0105,  0.0486, -4.8370, -6.9580, -0.6256
1489427958.7622649670,1489427958.7646689415, -1.1389, -0.0105,  0.0486, -4.8981, -6.9580, -0.6256
1489427958.7647409439,1489427958.7671420574, -1.1389, -0.0105,  0.0486, -4.8981, -6.9580, -0.6256
1489427958.7672131062,1489427958.7696158886, -1.1389, -0.0105,  0.0486, -4.8981, -6.9580, -0.6256
1489427958.7696869373,1489427958.7721390724, -1.1389, -0.0105,  0.0486, -4.8981, -6.9580, -0.4425
1489427958.7722098827,1489427958.7746150494, -1.1389, -0.0105,  0.0486, -4.0131, -7.2937, -0.4425
1489427958.7746860981,1489427958.7770860195, -1.1450,  0.0012,  0.0420, -4.0131, -7.2937, -0.4425
1489427958.7771580219,1489427958.7795670033, -1.1450,  0.0012,  0.0420, -4.0131, -7.2937, -0.4425
1489427958.7796390057,1489427958.7820510864, -1.1450,  0.0012,  0.0420, -4.0131, -7.2937, -0.4425
1489427958.7821240425,1489427958.7845289707, -1.1450,  0.0012,  0.0420, -4.1351, -7.8583, -0.5951
1489427958.7846000195,1489427958.7870080471, -1.1450,  0.0012,  0.0420, -4.1351, -7.8583, -0.5951
1489427958.7870810032,1489427958.7894890308, -1.1450,  0.0012,  0.0420, -4.1351, -7.8583, -0.5951
1489427958.7895610332,1489427958.7919259071, -1.1450,  0.0012,  0.0420, -4.1351, -7.8583, -0.5951
1489427958.7919979095,1489427958.7942800522, -1.1450,  0.0012,  0.0420, -4.7150, -8.1024, -0.5798
1489427958.7943520546,1489427958.7966361046, -1.1450,  0.0120,  0.0325, -4.7150, -8.1024, -0.5798
1489427958.7967069149,1489427958.7989900112, -1.1504,  0.0120,  0.0325, -4.7150, -8.1024, -0.5798
1489427958.7990610600,1489427958.8013889790, -1.1504,  0.0120,  0.0325, -4.7150, -8.1024, -0.5798
1489427958.8014609814,1489427958.8038680553, -1.1504,  0.0120,  0.0325, -4.7150, -8.1024, -1.4496
1489427958.8039391041,1489427958.8063430786, -1.1504,  0.0120,  0.0325, -5.8746, -8.7280, -1.4496
1489427958.8064129353,1489427958.8088169098, -1.1504,  0.0120,  0.0325, -5.8746, -8.7280, -1.4496
1489427958.8088879585,1489427958.8113439083, -1.1504,  0.0120,  0.0325, -5.8746, -8.7280, -1.4496
1489427958.8114149570,1489427958.8138239384, -1.1504,  0.0120,  0.0325, -5.8746, -8.7280, -1.4496
1489427958.8139998913,1489427958.8164100647, -1.1504,  0.0120,  0.0525, -5.9357,-10.1318, -1.9226
1489427958.8164849281,1489427958.8188910484, -1.1501,  0.0105,  0.0525, -5.9357,-10.1318, -1.9226
1489427958.8189649582,1489427958.8213820457, -1.1501,  0.0105,  0.0525, -5.9357,-10.1318, -1.9226
1489427958.8214540482,1489427958.8238639832, -1.1501,  0.0105,  0.0525, -5.9357,-10.1318, -1.9226
1489427958.8239369392,1489427958.8263440132, -1.1501,  0.0105,  0.0525, -6.3934,-10.3912, -2.2888
1489427958.8264179230,1489427958.8288230896, -1.1501,  0.0105,  0.0525, -6.3934,-10.3912, -2.2888
1489427958.8288960457,1489427958.8313460350, -1.1501,  0.0105,  0.0525, -6.3934,-10.3912, -2.2888
1489427958.8314189911,1489427958.8338229656, -1.1501,  0.0105,  0.0525, -6.3934,-10.3912, -2.2888
1489427958.8338971138,1489427958.8362979889, -1.1501,  0.0105,  0.0586, -7.3547,-11.0168, -2.6550
1489427958.8363718987,1489427958.8387761116, -1.1494,  0.0239,  0.0586, -7.3547,-11.0168, -2.6550
1489427958.8388490677,1489427958.8412489891, -1.1494,  0.0239,  0.0586, -7.3547,-11.0168, -2.6550
1489427958.8413219452,1489427958.8436050415, -1.1494,  0.0239,  0.0586, -7.3547,-11.0168, -2.6550
1489427958.8436779976,1489427958.8459579945, -1.1494,  0.0239,  0.0586, -7.3547,-11.0168, -3.0060
1489427958.8460309505,1489427958.8483068943, -1.1494,  0.0239,  0.0586, -8.6365,-11.2152, -3.0060
1489427958.8483810425,1489427958.8506629467, -1.1494,  0.0239,  0.0586, -8.6365,-11.2152, -3.0060
1489427958.8507370949,1489427958.8531858921, -1.1494,  0.0239,  0.0586, -8.6365,-11.2152, -3.0060
1489427958.8532600403,1489427958.8556621075, -1.1494,  0.0239,  0.0586, -8.6365,-11.2152, -3.0060
1489427958.8557369709,1489427958.8581469059, -1.1514,  0.0273,  0.0359, -8.7891,-12.4359, -3.5400
1489427958.8582220078,1489427958.8606240749, -1.1514,  0.0273,  0.0359, -8.7891,-12.4359, -3.5400
1489427958.8606989384,1489427958.8631570339, -1.1514,  0.0273,  0.0359, -8.7891,-12.4359, -3.5400
1489427958.8632309437,1489427958.8656361103, -1.1514,  0.0273,  0.0359, -8.7891,-12.4359, -3.5400
1489427958.8657090664,1489427958.8681130409, -1.1514,  0.0273,  0.0359, -9.2468,-12.8021, -3.6163
1489427958.8681859970,1489427958.8705921173, -1.1514,  0.0273,  0.0359, -9.2468,-12.8021, -3.6163
1489427958.8706660271,1489427958.8730690479, -1.1514,  0.0273,  0.0359, -9.2468,-12.8021, -3.6163
1489427958.8731429577,1489427958.8755469322, -1.1514,  0.0273,  0.0359, -9.2468,-12.8021, -3.6163
1489427958.8756210804,1489427958.8780291080, -1.1475,  0.0288,  0.0398, -9.2468,-12.8021, -4.5471
1489427958.8781030178,1489427958.8805119991, -1.1475,  0.0288,  0.0398, -9.5825,-14.1602, -4.5471
1489427958.8805871010,1489427958.8830060959, -1.1475,  0.0288,  0.0398, -9.5825,-14.1602, -4.5471
1489427958.8830809593,1489427958.8854858875, -1.1475,  0.0288,  0.0398, -9.5825,-14.1602, -4.5471
1489427958.8855600357,1489427958.8879630566, -1.1475,  0.0288,  0.0398, -9.5825,-14.1602, -4.5471
1489427958.8880379200,1489427958.8904449940, -1.1475,  0.0288,  0.0398,-11.0016,-15.3503, -7.2937
1489427958.8905220032,1489427958.8928380013, -1.1475,  0.0288,  0.0398,-11.0016,-15.3503, -7.2937
1489427958.8929150105,1489427958.8952009678, -1.1475,  0.0288,  0.0398,-11.0016,-15.3503, -7.2937
1489427958.8952779770,1489427958.8975598812, -1.1396,  0.0398,  0.0356,-11.0016,-15.3503, -7.2937
1489427958.8976359367,1489427958.8999168873, -1.1396,  0.0398,  0.0356,-14.8468,-16.7236,-10.3302
1489427958.8999938965,1489427958.9023931026, -1.1396,  0.0398,  0.0356,-14.8468,-16.7236,-10.3302
1489427958.9024710655,1489427958.9048750401, -1.1396,  0.0398,  0.0356,-14.8468,-16.7236,-10.3302
1489427958.9049539566,1489427958.9073579311, -1.1396,  0.0398,  0.0356,-14.8468,-16.7236,-10.3302
1489427958.9074349403,1489427958.9098451138, -1.1396,  0.0398,  0.0356,-14.8468,-16.7236,-14.8468
1489427958.9099218845,1489427958.9123420715, -1.1396,  0.0398,  0.0356,-17.3798,-18.5547,-14.8468
1489427958.9124190807,1489427958.9148280621, -1.1396,  0.0398,  0.0356,-17.3798,-18.5547,-14.8468
1489427958.9149060249,1489427958.9173130989, -1.1753,  0.0691,  0.0137,-17.3798,-18.5547,-14.8468
1489427958.9175050259,1489427958.9199140072, -1.1753,  0.0691,  0.0137,-17.3798,-18.5547,-22.6593
1489427958.9199919701,1489427958.9224109650, -1.1753,  0.0691,  0.0137,-19.2566,-21.0266,-19.9585
1489427958.9224898815,1489427958.9248991013, -1.1753,  0.0691,  0.0137,-19.2566,-21.0266,-19.9585
1489427958.9249770641,1489427958.9273860455, -1.1753,  0.0691,  0.0137,-19.2566,-21.0266,-19.9585
1489427958.9274640083,1489427958.9298720360, -1.1753,  0.0691,  0.0137,-19.2566,-21.0266,-19.9585
1489427958.9299509525,1489427958.9323670864, -1.1753,  0.0691,  0.0137,-21.1639,-23.5138,-25.7416
1489427958.9324450493,1489427958.9348449707, -1.1753,  0.0691,  0.0137,-21.1639,-23.5138,-25.7416
1489427958.9349229336,1489427958.9373309612, -1.2288,  0.1218, -0.0149,-21.1639,-23.5138,-25.7416
1489427958.9374110699,1489427958.9398150444, -1.2288,  0.1218, -0.0149,-21.1639,-23.5138,-25.7416
1489427958.9398949146,1489427958.9422750473, -1.2288,  0.1218, -0.0149,-25.1160,-26.3214,-33.0048
1489427958.9423549175,1489427958.9446420670, -1.2288,  0.1218, -0.0149,-25.1160,-26.3214,-33.0048
1489427958.9447209835,1489427958.9469990730, -1.2288,  0.1218, -0.0149,-25.1160,-26.3214,-33.0048
1489427958.9470779896,1489427958.9493620396, -1.2288,  0.1218, -0.0149,-25.1160,-26.3214,-33.0048
1489427958.9494400024,1489427958.9518020153, -1.2288,  0.1218, -0.0149,-25.1160,-26.3214,-41.2903
1489427958.9518809319,1489427958.9542839527, -1.2288,  0.1218, -0.0149,-29.5563,-29.6478,-41.2903
1489427958.9543631077,1489427958.9567739964, -1.2288,  0.1843, -0.0923,-29.5563,-29.6478,-41.2903
1489427958.9568519592,1489427958.9592568874, -1.2844,  0.1470, -0.0923,-29.5563,-29.6478,-41.2903
1489427958.9593360424,1489427958.9617519379, -1.2844,  0.1470, -0.0923,-29.5563,-29.6478,-41.2903
1489427958.9618310928,1489427958.9642379284, -1.2844,  0.1470, -0.0923,-34.0118,-33.7982,-51.9104
1489427958.9643158913,1489427958.9667189121, -1.2844,  0.1470, -0.0923,-34.0118,-33.7982,-51.9104
1489427958.9667980671,1489427958.9692089558, -1.2844,  0.1470, -0.0923,-34.0118,-33.7982,-51.9104
1489427958.9692881107,1489427958.9717481136, -1.2844,  0.1470, -0.0923,-34.0118,-33.7982,-51.9104
1489427958.9718270302,1489427958.9742379189, -1.2844,  0.1470, -0.0923,-40.8020,-36.9873,-62.5000
1489427958.9743180275,1489427958.9767200947, -1.2844,  0.1470, -0.1509,-40.8020,-36.9873,-62.5000
1489427958.9767971039,1489427958.9792079926, -1.3513,  0.1604, -0.1509,-40.8020,-36.9873,-62.5000
1489427958.9792869091,1489427958.9817659855, -1.3513,  0.1604, -0.1509,-40.8020,-36.9873,-62.5000
1489427958.9818449020,1489427958.9842560291, -1.3513,  0.1604, -0.1509,-50.2625,-37.7655,-73.5474
1489427958.9843349457,1489427958.9867410660, -1.3513,  0.1604, -0.1509,-50.2625,-37.7655,-73.5474
1489427958.9868199825,1489427958.9892179966, -1.3513,  0.1604, -0.1509,-50.2625,-37.7655,-73.5474
1489427958.9892969131,1489427958.9917230606, -1.3513,  0.1604, -0.1509,-50.2625,-37.7655,-73.5474
1489427958.9918019772,1489427958.9940838814, -1.3513,  0.1604, -0.1509,-50.2625,-37.7655,-81.2073
1489427958.9941620827,1489427958.9964480400, -1.3513,  0.1604, -0.2312,-53.8635,-36.3312,-81.2073
1489427958.9965260029,1489427958.9988110065, -1.4429,  0.1331, -0.2312,-53.8635,-36.3312,-81.2073
1489427958.9988889694,1489427959.0011770725, -1.4429,  0.1331, -0.2312,-53.8635,-36.3312,-81.2073
1489427959.0012559891,1489427959.0035419464, -1.4429,  0.1331, -0.2312,-53.8635,-36.3312,-81.2073
1489427959.0036199093,1489427959.0059020519, -1.4429,  0.1331, -0.2312,-53.2074,-32.3486,-81.0394
1489427959.0059800148,1489427959.0082619190, -1.4429,  0.1331, -0.2312,-53.2074,-32.3486,-81.0394
1489427959.0083398819,1489427959.0106120110, -1.4429,  0.1331, -0.2312,-53.2074,-32.3486,-81.0394
1489427959.0106909275,1489427959.0131399632, -1.4429,  0.1331, -0.2312,-53.2074,-32.3486,-81.0394
1489427959.0132191181,1489427959.0156269073, -1.4429,  0.1331, -0.2312,-53.2074,-24.1241,-92.7887
1489427959.0157051086,1489427959.0181078911, -1.6501, -0.4387, -0.2241,-55.1147,-24.1241,-92.7887
1489427959.0182840824,1489427959.0206921101, -1.6501, -0.4387, -0.2241,-55.1147,-24.1241,-92.7887
1489427959.0207700729,1489427959.0231859684, -1.6501, -0.4387, -0.2241,-55.1147,-24.1241,-92.7887
1489427959.0232639313,1489427959.0256710052, -1.6501, -0.4387, -0.2241,-55.1147,-24.1241,-98.9227
1489427959.0257480145,1489427959.0281550884, -1.6501, -0.4387, -0.2241,-14.1602,-20.4773,-98.9227
1489427959.0282330513,1489427959.0306379795, -1.6501, -0.4387, -0.2241,-14.1602,-20.4773,-98.9227
1489427959.0307159424,1489427959.0331380367, -1.6501, -0.4387, -0.2241,-14.1602,-20.4773,-98.9227
1489427959.0332150459,1489427959.0356190205, -1.6501, -0.4387, -0.2241,-14.1602,-20.4773,-98.9227
1489427959.0356969833,1489427959.0381069183, -1.6951, -0.3071, -0.3950, 32.9132,-21.1029,-89.3097
1489427959.0381860733,1489427959.0405910015, -1.6951, -0.3071, -0.3950, 32.9132,-21.1029,-89.3097
1489427959.0406699181,1489427959.0429689884, -1.6951, -0.3071, -0.3950, 32.9132,-21.1029,-89.3097
1489427959.0430490971,1489427959.0453341007, -1.6951, -0.3071, -0.3950, 32.9132,-21.1029,-89.3097
1489427959.0454120636,1489427959.0476949215, -1.6951, -0.3071, -0.3950, 44.6014,-17.0135,-88.1195
1489427959.0477728844,1489427959.0500500202, -1.6951, -0.3071, -0.3950, 44.6014,-17.0135,-88.1195
1489427959.0501279831,1489427959.0525429249, -1.6951, -0.3071, -0.3950, 44.6014,-17.0135,-88.1195
1489427959.0526230335,1489427959.0550279617, -1.6951, -0.3071, -0.3950, 44.6014,-17.0135,-88.1195
1489427959.0551059246,1489427959.0575110912, -1.4268,  0.0051, -0.3943, 44.6014,-17.0135,-86.6852
1489427959.0575909615,1489427959.0599939823, -1.4268,  0.0051, -0.3943, 46.9360,-12.5275,-86.6852
1489427959.0600740910,1489427959.0624790192, -1.4268,  0.0051, -0.3943, 46.9360,-12.5275,-86.6852
1489427959.0625588894,1489427959.0649609566, -1.4268,  0.0051, -0.3943, 46.9360,-12.5275,-86.6852
1489427959.0650410652,1489427959.0674419403, -1.4268,  0.0051, -0.3943, 46.9360,-12.5275,-86.6852
1489427959.0675220490,1489427959.0699250698, -1.4268,  0.0051, -0.3943, 46.5698, -7.4310,-79.7729
1489427959.0700039864,1489427959.0724210739, -1.4268,  0.0051, -0.3943, 46.5698, -7.4310,-79.7729
1489427959.0724990368,1489427959.0749039650, -1.4268,  0.0051, -0.3943, 46.5698, -7.4310,-79.7729
1489427959.0749809742,1489427959.0773870945, -1.3643, -0.0234, -0.4072, 46.5698, -7.4310,-79.7729
1489427959.0774650574,1489427959.0798718929, -1.3525, -0.0234, -0.4072, 45.2271,  1.9836,-76.5839
1489427959.0799489021,1489427959.0823020935, -1.3525, -0.0234, -0.4072, 45.2271,  1.9836,-76.5839
1489427959.0823791027,1489427959.0846610069, -1.3525, -0.0234, -0.4072, 45.2271,  1.9836,-76.5839
1489427959.0847389698,1489427959.0870211124, -1.3525, -0.0234, -0.4072, 45.2271,  1.9836,-76.5839
1489427959.0870978832,1489427959.0893790722, -1.3525, -0.0234, -0.4072, 45.2271, 13.7024,-69.6106
1489427959.0894589424,1489427959.0918149948, -1.3525, -0.0234, -0.4072, 57.4493, 12.9395,-69.6106
1489427959.0918939114,1489427959.0943059921, -1.3525, -0.0234, -0.4072, 57.4493, 12.9395,-69.6106
1489427959.0943861008,1489427959.0967929363, -1.3525, -0.0234, -0.2988, 57.4493, 12.9395,-69.6106
1489427959.0968720913,1489427959.0992810726, -0.9941,  0.2771, -0.2988, 57.4493, 12.9395,-69.6106
1489427959.0993609428,1489427959.1017949581, -0.9941,  0.2771, -0.2988, 58.0750, 22.8271,-60.4706
1489427959.1018750668,1489427959.1042819023, -0.9941,  0.2771, -0.2988, 58.0750, 22.8271,-60.4706
1489427959.1043610573,1489427959.1067750454, -0.9941,  0.2771, -0.2988, 58.0750, 22.8271,-60.4706
1489427959.1068549156,1489427959.1092629433, -0.9941,  0.2771, -0.2988, 58.0750, 22.8271,-60.4706
1489427959.1093430519,1489427959.1117599010, -0.9941,  0.2771, -0.2988, 55.1453, 37.1704,-55.5115
1489427959.1118390560,1489427959.1142470837, -0.9941,  0.2771, -0.2988, 55.1453, 37.1704,-55.5115
1489427959.1143250465,1489427959.1167309284, -0.9941,  0.2771, -0.2488, 55.1453, 37.1704,-55.5115
1489427959.1168100834,1489427959.1192181110, -0.9336,  0.7090, -0.2488, 55.1453, 37.1704,-55.5115
1489427959.1192970276,1489427959.1217548847, -0.9336,  0.7090, -0.2488, 41.1682, 47.3785,-38.4369
1489427959.1219449043,1489427959.1243538857, -0.9336,  0.7090, -0.2488, 41.1682, 47.3785,-38.4369
1489427959.1244330406,1489427959.1268389225, -0.9336,  0.7090, -0.2488, 41.1682, 47.3785,-38.4369
1489427959.1269180775,1489427959.1293230057, -0.9336,  0.7090, -0.2488, 41.1682, 47.3785,-38.4369
1489427959.1294019222,1489427959.1317789555, -0.9336,  0.7090, -0.2488, 41.1682, 55.1910,-24.8108
1489427959.1318590641,1489427959.1341431141, -0.9336,  0.7090, -0.2488, 15.7623, 54.8859,-24.8108
1489427959.1342229843,1489427959.1365039349, -0.9336,  0.7090, -0.0613, 15.7623, 54.8859,-24.8108
1489427959.1365840435,1489427959.1388630867, -0.9111,  0.7542, -0.0403, 15.7623, 54.8859,-24.8108
1489427959.1389429569,1489427959.1412489414, -0.9111,  0.7542, -0.0403, 15.7623, 54.8859,-24.8108
1489427959.1413290501,1489427959.1437370777, -0.9111,  0.7542, -0.0403, -6.6376, 63.7360,-11.7950
1489427959.1438159943,1489427959.1462259293, -0.9111,  0.7542, -0.0403, -6.6376, 63.7360,-11.7950
1489427959.1463038921,1489427959.1487030983, -0.9111,  0.7542, -0.0403, -6.6376, 63.7360,-11.7950
1489427959.1487810612,1489427959.1511940956, -0.9111,  0.7542, -0.0403, -6.6376, 63.7360,-11.7950
1489427959.1512711048,1489427959.1536738873, -0.9111,  0.7542, -0.0403,-23.6359, 72.1130,  0.6561
1489427959.1537530422,1489427959.1561620235, -0.9111,  0.7542, -0.0403,-23.6359, 72.1130,  0.6561
1489427959.1562409401,1489427959.1586480141, -0.8347,  0.6365,  0.0603,-23.6359, 72.1130,  0.6561
1489427959.1587259769,1489427959.1611459255, -0.8347,  0.6365,  0.0603,-23.6359, 72.1130,  0.6561
1489427959.1612238884,1489427959.1636290550, -0.8347,  0.6365,  0.0603,-23.6359, 77.3163, 15.3656
1489427959.1637089252,1489427959.1661159992, -0.8347,  0.6365,  0.0603,-23.5138, 77.3163, 15.3656
1489427959.1661949158,1489427959.1686010361, -0.8347,  0.6365,  0.0603,-23.5138, 77.3163, 15.3656
1489427959.1686799526,1489427959.1710839272, -0.8347,  0.6365,  0.0603,-23.5138, 77.3163, 15.3656
1489427959.1711630821,1489427959.1735689640, -0.8347,  0.6365,  0.0603,-23.5138, 77.3163, 27.0844
1489427959.1736490726,1489427959.1760540009, -0.8347,  0.6365,  0.0603,-16.2659, 78.6591, 27.1454
1489427959.1761341095,1489427959.1785430908, -0.8933,  0.6968,  0.1311,-16.2659, 78.6591, 27.1454
1489427959.1786229610,1489427959.1810400486, -0.8933,  0.6968,  0.1311,-16.2659, 78.6591, 27.1454
1489427959.1811211109,1489427959.1834049225, -0.8933,  0.6968,  0.1311,-16.2659, 78.6591, 27.1454
1489427959.1834840775,1489427959.1857700348, -0.8933,  0.6968,  0.1311, -9.9640, 78.2318, 38.7115
1489427959.1858479977,1489427959.1881260872, -0.8933,  0.6968,  0.1311, -9.9640, 78.2318, 38.7115
1489427959.1882040501,1489427959.1904900074, -0.8933,  0.6968,  0.1311, -9.9640, 78.2318, 38.7115
1489427959.1905679703,1489427959.1929900646, -0.8933,  0.6968,  0.1311, -9.9640, 78.2318, 38.7115
1489427959.1930680275,1489427959.1954760551, -0.8933,  0.6968,  0.1311, -6.0577, 76.6296, 52.2308
1489427959.1955521107,1489427959.1979598999, -0.9536,  0.6904,  0.1936, -4.4861, 76.6296, 52.2308
1489427959.1980381012,1489427959.2004499435, -0.9536,  0.6904,  0.1936, -4.4861, 76.6296, 52.2308
1489427959.2005269527,1489427959.2029459476, -0.9536,  0.6904,  0.1936, -4.4861, 76.6296, 52.2308
1489427959.2030229568,1489427959.2054290771, -0.9536,  0.6904,  0.1936, -4.4861, 76.6296, 66.0858
1489427959.2055070400,1489427959.2079150677, -0.9536,  0.6904,  0.1936,  1.0376, 73.8373, 66.0858
1489427959.2079920769,1489427959.2104010582, -0.9536,  0.6904,  0.1936,  1.0376, 73.8373, 66.0858
1489427959.2104790211,1489427959.2129299641, -0.9536,  0.6904,  0.1936,  1.0376, 73.8373, 66.0858
1489427959.2130069733,1489427959.2154159546, -0.9536,  0.6904,  0.1936,  1.0376, 73.8373, 66.0858
1489427959.2154939175,1489427959.2178990841, -1.0310,  0.6538,  0.2710,  7.8888, 70.0989, 79.7272
1489427959.2179770470,1489427959.2203910351, -1.0310,  0.6538,  0.2710,  7.8888, 70.0989, 79.7272
1489427959.2204689980,1489427959.2228789330, -1.0310,  0.6538,  0.2710,  7.8888, 70.0989, 79.7272
1489427959.2229580879,1489427959.2253639698, -1.0310,  0.6538,  0.2710,  7.8888, 70.0989, 79.7272
1489427959.2255470753,1489427959.2279539108, -1.0310,  0.6538,  0.2710, 13.2904, 66.3300, 91.8121
1489427959.2280340195,1489427959.2304379940, -1.0310,  0.6538,  0.2710, 13.2904, 66.3300, 91.8121
1489427959.2305190563,1489427959.2328579426, -1.0310,  0.6538,  0.2710, 13.2904, 66.3300, 91.8121
1489427959.2329380512,1489427959.2352230549, -1.0310,  0.6538,  0.2710, 13.2904, 66.3300, 91.8121
1489427959.2353019714,1489427959.2375829220, -1.0935,  0.6245,  0.2905, 13.2904, 63.0188,102.7069
1489427959.2376608849,1489427959.2399470806, -1.0989,  0.6245,  0.2905, 17.3645, 63.0188,102.7069
1489427959.2400259972,1489427959.2423179150, -1.0989,  0.6245,  0.2905, 17.3645, 63.0188,102.7069
1489427959.2423970699,1489427959.2446749210, -1.0989,  0.6245,  0.2905, 17.3645, 63.0188,102.7069
1489427959.2447540760,1489427959.2470378876, -1.0989,  0.6245,  0.2905, 17.3645, 63.0188,102.7069
1489427959.2471160889,1489427959.2493948936, -1.0989,  0.6245,  0.2905, 18.1427, 60.6232,112.6862
1489427959.2494750023,1489427959.2518200874, -1.0989,  0.6245,  0.2905, 18.1427, 60.6232,112.6862
1489427959.2518980503,1489427959.2543048859, -1.0989,  0.6245,  0.2905, 18.1427, 60.6232,112.6862
1489427959.2543840408,1489427959.2567870617, -1.0989,  0.6245,  0.3530, 18.1427, 60.6232,112.6862
1489427959.2568659782,1489427959.2592780590, -1.1831,  0.5876,  0.3328, 14.5569, 58.2886,120.5139
1489427959.2593560219,1489427959.2617750168, -1.1831,  0.5876,  0.3328, 14.5569, 58.2886,120.5139
1489427959.2618529797,1489427959.2642540932, -1.1831,  0.5876,  0.3328, 14.5569, 58.2886,120.5139
1489427959.2643320560,1489427959.2667369843, -1.1831,  0.5876,  0.3328, 14.5569, 58.2886,120.5139
1489427959.2668159008,1489427959.2692170143, -1.1831,  0.5876,  0.3328, 14.5569, 58.2886,126.4343
1489427959.2692959309,1489427959.2717490196, -1.1831,  0.5876,  0.3328, 11.9324, 55.2368,126.4343
1489427959.2718269825,1489427959.2742309570, -1.1831,  0.5876,  0.3328, 11.9324, 55.2368,126.4343
1489427959.2743089199,1489427959.2767109871, -1.1831,  0.5876,  0.2703, 11.9324, 55.2368,126.4343
1489427959.2767889500,1489427959.2791950703, -1.2708,  0.5415,  0.3054, 11.9324, 55.2368,134.2468
1489427959.2792730331,1489427959.2816810608, -1.2708,  0.5415,  0.3054, 12.3138, 53.0548,133.4229
1489427959.2817599773,1489427959.2841649055, -1.2708,  0.5415,  0.3054, 12.3138, 53.0548,133.4229
1489427959.2842440605,1489427959.2866549492, -1.2708,  0.5415,  0.3054, 12.3138, 53.0548,133.4229
1489427959.2867341042,1489427959.2891368866, -1.2708,  0.5415,  0.3054, 12.3138, 53.0548,133.4229
1489427959.2892160416,1489427959.2916090488, -1.2708,  0.5415,  0.3054, 12.3138, 52.1851,139.3127
1489427959.2916879654,1489427959.2939729691, -1.2708,  0.5415,  0.3054, 12.3138, 52.1851,139.3127
1489427959.2940518856,1489427959.2963340282, -1.2708,  0.5415,  0.3054, 12.3138, 52.1851,139.3127
1489427959.2964129448,1489427959.2986969948, -1.3103,  0.4661,  0.2153, 12.3138, 52.1851,139.3127
1489427959.2987771034,1489427959.3010699749, -1.3103,  0.4661,  0.2153,  8.4076, 51.8036,143.6462
1489427959.3011479378,1489427959.3035509586, -1.3103,  0.4661,  0.2153,  9.9792, 51.8036,143.6462
1489427959.3036279678,1489427959.3060379028, -1.3103,  0.4661,  0.2153,  9.9792, 51.8036,143.6462
1489427959.3061149120,1489427959.3085188866, -1.3103,  0.4661,  0.2153,  9.9792, 51.8036,143.6462
1489427959.3085958958,1489427959.3110120296, -1.3103,  0.4661,  0.2153,  9.9792, 51.8036,147.6135
1489427959.3110890388,1489427959.3134970665, -1.3103,  0.4661,  0.2153,  5.2948, 51.0559,147.6135
1489427959.3135728836,1489427959.3159809113, -1.3103,  0.4661,  0.2153,  5.2948, 51.0559,147.6135
1489427959.3160579205,1489427959.3184690475, -1.3416,  0.4358,  0.1543,  5.2948, 51.0559,147.6135
1489427959.3185460567,1489427959.3209619522, -1.3416,  0.4358,  0.1543,  5.2948, 51.0559,147.6135
1489427959.3210380077,1489427959.3234460354, -1.3416,  0.4358,  0.1543,  0.1221, 49.6063,150.4517
1489427959.3235249519,1489427959.3259301186, -1.3416,  0.4358,  0.1543,  0.1221, 49.6063,150.4517
1489427959.3260068893,1489427959.3284130096, -1.3416,  0.4358,  0.1543,  0.1221, 49.6063,150.4517
1489427959.3285961151,1489427959.3310170174, -1.3416,  0.4358,  0.1543,  0.1221, 49.6063,150.4517
1489427959.3310949802,1489427959.3335039616, -1.3416,  0.4358,  0.1543, -4.0436, 48.4772,152.7100
1489427959.3335800171,1489427959.3359870911, -1.3416,  0.4358,  0.1543, -4.0436, 48.4772,152.7100
1489427959.3360641003,1489427959.3384718895, -1.3782,  0.3066,  0.0818, -4.0436, 48.4772,152.7100
1489427959.3385500908,1489427959.3409659863, -1.3782,  0.3066,  0.0818, -4.0436, 48.4772,152.7100
1489427959.3410439491,1489427959.3433320522, -1.3782,  0.3066,  0.0818, -0.1373, 48.0194,153.1982
1489427959.3434090614,1489427959.3456919193, -1.3782,  0.3066,  0.0818, -3.9062, 48.0194,153.1982
1489427959.3457689285,1489427959.3480510712, -1.3782,  0.3066,  0.0818, -3.9062, 48.0194,153.1982
1489427959.3481280804,1489427959.3504118919, -1.3782,  0.3066,  0.0818, -3.9062, 48.0194,153.1982
1489427959.3504889011,1489427959.3528718948, -1.3782,  0.3066,  0.0818, -3.9062, 48.0194,153.1982
1489427959.3529489040,1489427959.3553569317, -1.3782,  0.3066,  0.0818,  1.0223, 47.7600,152.6337
1489427959.3554339409,1489427959.3578429222, -1.3782,  0.1792,  0.0625,  1.0223, 47.7600,152.6337
1489427959.3579199314,1489427959.3603279591, -1.4229,  0.1792,  0.0625,  1.0223, 47.7600,152.6337
1489427959.3604049683,1489427959.3628189564, -1.4229,  0.1792,  0.0625,  1.0223, 47.7600,152.6337
1489427959.3628959656,1489427959.3653049469, -1.4229,  0.1792,  0.0625,  6.7444, 46.8140,151.5198
1489427959.3653810024,1489427959.3677849770, -1.4229,  0.1792,  0.0625,  6.7444, 46.8140,151.5198
1489427959.3678629398,1489427959.3702669144, -1.4229,  0.1792,  0.0625,  6.7444, 46.8140,151.5198
1489427959.3703439236,1489427959.3726730347, -1.4229,  0.1792,  0.0625,  6.7444, 46.8140,151.5198
1489427959.3727500439,1489427959.3750360012, -1.4229,  0.1792,  0.0625,  2.8381, 44.6014,151.2909
1489427959.3751139641,1489427959.3773970604, -1.4229,  0.1167,  0.0723,  3.1586, 44.6014,151.2909
1489427959.3774740696,1489427959.3797609806, -1.4543,  0.0928,  0.0723,  3.1586, 44.6014,151.2909
1489427959.3798370361,1489427959.3822069168, -1.4543,  0.0928,  0.0723,  3.1586, 44.6014,151.2909
1489427959.3822829723,1489427959.3846869469, -1.4543,  0.0928,  0.0723,  3.1586, 44.6014,151.2909
1489427959.3847639561,1489427959.3871710300, -1.4543,  0.0928,  0.0723,  2.9907, 40.7715,150.3448
1489427959.3872470856,1489427959.3896520138, -1.4543,  0.0928,  0.0723,  2.9907, 40.7715,150.3448
1489427959.3897290230,1489427959.3920900822, -1.4543,  0.0928,  0.0723,  2.9907, 40.7715,150.3448
1489427959.3921670914,1489427959.3944559097, -1.4543,  0.0928,  0.0723,  2.9907, 40.7715,150.3448
1489427959.3945319653,1489427959.3968229294, -1.4543,  0.0928, -0.0527,  3.7079, 36.6058,145.8740
1489427959.3968999386,1489427959.3991830349, -1.4575, -0.1028, -0.0005,  3.7079, 36.6058,145.8740
1489427959.3992600441,1489427959.4016079903, -1.4575, -0.1028, -0.0005,  3.7079, 36.6058,145.8740
1489427959.4016849995,1489427959.4040889740, -1.4575, -0.1028, -0.0005,  3.7079, 36.6058,145.8740
1489427959.4041659832,1489427959.4065721035, -1.4575, -0.1028, -0.0005,  3.7079, 32.6996,139.4806
1489427959.4066491127,1489427959.4090569019, -1.4575, -0.1028, -0.0005,  4.8523, 34.7900,139.4806
1489427959.4091351032,1489427959.4115540981, -1.4575, -0.1028, -0.0005,  4.8523, 34.7900,139.4806
1489427959.4116311073,1489427959.4140369892, -1.4575, -0.1028, -0.0005,  4.8523, 34.7900,139.4806
1489427959.4141149521,1489427959.4165201187, -1.4575, -0.1028, -0.0005,  4.8523, 34.7900,131.6681
1489427959.4165968895,1489427959.4190049171, -1.3838, -0.3955, -0.0383, -6.0272, 31.9519,132.5378
1489427959.4190809727,1489427959.4215400219, -1.3838, -0.3955, -0.0383, -6.0272, 31.9519,132.5378
1489427959.4216160774,1489427959.4240250587, -1.3838, -0.3955, -0.0383, -6.0272, 31.9519,132.5378
1489427959.4241011143,1489427959.4265060425, -1.3838, -0.3955, -0.0383, -6.0272, 31.9519,132.5378
1489427959.4265830517,1489427959.4289898872, -1.3838, -0.3955, -0.0383,-16.4948, 27.2827,127.0905
1489427959.4290699959,1489427959.4314770699, -1.3838, -0.3955, -0.0383,-16.4948, 27.2827,127.0905
1489427959.4316630363,1489427959.4340729713, -1.3838, -0.3955, -0.0383,-16.4948, 27.2827,127.0905
1489427959.4341518879,1489427959.4365620613, -1.3838, -0.3955, -0.0383,-16.4948, 27.2827,127.0905
1489427959.4366419315,1489427959.4390470982, -1.1975, -0.4292,  0.0305,-20.3094, 22.7051,119.6136
1489427959.4391269684,1489427959.4415149689, -1.1975, -0.4292,  0.0305,-20.3094, 22.7051,119.6136
1489427959.4415950775,1489427959.4438769817, -1.1975, -0.4292,  0.0305,-20.3094, 22.7051,119.6136
1489427959.4439558983,1489427959.4462339878, -1.1975, -0.4292,  0.0305,-20.3094, 22.7051,119.6136
1489427959.4463129044,1489427959.4486010075, -1.1975, -0.4292,  0.0305,-20.3094, 22.7051,109.8938
1489427959.4486811161,1489427959.4509890079, -1.1975, -0.4292,  0.0305,-14.6637, 19.6533,109.8938
1489427959.4510679245,1489427959.4534769058, -1.1975, -0.4292,  0.0305,-14.6637, 19.6533,109.8938
1489427959.4535560608,1489427959.4559628963, -1.1975, -0.4292,  0.0305,-14.6637, 19.6533,109.8938
1489427959.4560410976,1489427959.4584519863, -1.1465, -0.4890, -0.0950,-14.6637, 19.6533,109.8938
1489427959.4585320950,1489427959.4609479904, -1.1465, -0.4890, -0.0950, -4.5929, 18.0206, 94.9249
1489427959.4610259533,1489427959.4634308815, -1.1465, -0.4890, -0.0950, -4.5929, 18.0206, 94.9249
1489427959.4635078907,1489427959.4659159184, -1.1465, -0.4890, -0.0950, -4.5929, 18.0206, 94.9249
1489427959.4659938812,1489427959.4684000015, -1.1465, -0.4890, -0.0950, -4.5929, 18.0206, 94.9249
1489427959.4684779644,1489427959.4708878994, -1.1465, -0.4890, -0.0950,  8.8654, 17.6086, 76.5533
1489427959.4710109234,1489427959.4734179974, -1.1465, -0.4890, -0.0950,  8.8654, 17.6086, 76.5533
1489427959.4734959602,1489427959.4759109020, -1.1465, -0.4890, -0.0950,  8.8654, 17.6086, 76.5533
1489427959.4759900570,1489427959.4783949852, -1.1250, -0.4983, -0.0464,  8.8654, 17.6086, 76.5533
1489427959.4784739017,1489427959.4808759689, -1.1250, -0.4983, -0.0464, 20.5841, 16.3574, 55.2521
1489427959.4810049534,1489427959.4834189415, -1.1250, -0.4983, -0.0464, 19.6381, 16.3574, 55.2521
1489427959.4834990501,1489427959.4859089851, -1.1250, -0.4983, -0.0464, 19.6381, 16.3574, 55.2521
1489427959.4859890938,1489427959.4884009361, -1.1250, -0.4983, -0.0464, 19.6381, 16.3574, 55.2521
1489427959.4884800911,1489427959.4909350872, -1.1250, -0.4983, -0.0464, 19.6381, 16.3574, 32.6080
1489427959.4910159111,1489427959.4932999611, -1.1250, -0.4983, -0.0464, 23.9105, 14.3280, 32.6080
1489427959.4933800697,1489427959.4956688881, -1.1250, -0.4983, -0.0464, 23.9105, 14.3280, 32.6080
1489427959.4957489967,1489427959.4980299473, -1.1250, -0.5146,  0.1169, 23.9105, 14.3280, 32.6080
1489427959.4981100559,1489427959.5003941059, -1.1243, -0.5146,  0.1169, 23.9105, 14.3280, 32.6080
1489427959.5004730225,1489427959.5027580261, -1.1243, -0.5146,  0.1169, 21.1334, 10.4523,  8.6212
1489427959.5028350353,1489427959.5051159859, -1.1243, -0.5146,  0.1169, 21.1334, 10.4523,  8.6212
1489427959.5051929951,1489427959.5074710846, -1.1243, -0.5146,  0.1169, 21.1334, 10.4523,  8.6212
1489427959.5075480938,1489427959.5098249912, -1.1243, -0.5146,  0.1169, 21.1334, 10.4523,  8.6212
1489427959.5099010468,1489427959.5122690201, -1.1243, -0.5146,  0.1169, 21.1334,  2.6398,-14.8315
1489427959.5123460293,1489427959.5147531033, -1.1243, -0.5146,  0.1169,  9.8572,  3.8757,-14.8315
1489427959.5148279667,1489427959.5172250271, -1.1243, -0.5146,  0.2419,  9.8572,  3.8757,-14.8315
1489427959.5172989368,1489427959.5196959972, -1.0989, -0.4763,  0.2036,  9.8572,  3.8757,-14.8315
1489427959.5197699070,1489427959.5221819878, -1.0989, -0.4763,  0.2036,  9.8572,  3.8757,-34.3628
1489427959.5222558975,1489427959.5246579647, -1.0989, -0.4763,  0.2036,-10.9863, -4.0894,-35.0189
1489427959.5247340202,1489427959.5271399021, -1.0989, -0.4763,  0.2036,-10.9863, -4.0894,-35.0189
1489427959.5272159576,1489427959.5296199322, -1.0989, -0.4763,  0.2036,-10.9863, -4.0894,-35.0189
1489427959.5296950340,1489427959.5321450233, -1.0989, -0.4763,  0.2036,-10.9863, -4.0894,-35.0189
1489427959.5323200226,1489427959.5347259045, -1.0989, -0.4763,  0.2036,-35.9802,-11.0474,-51.3763
1489427959.5348041058,1489427959.5372118950, -1.0989, -0.4763,  0.1411,-35.9802,-11.0474,-51.3763
1489427959.5372900963,1489427959.5396919250, -1.1174, -0.5061,  0.1851,-35.9802,-11.0474,-51.3763
1489427959.5397698879,1489427959.5421900749, -1.1174, -0.5061,  0.1851,-35.9802,-11.0474,-51.3763
1489427959.5422680378,1489427959.5446701050, -1.1174, -0.5061,  0.1851,-59.4025,-16.0980,-65.1855
1489427959.5447490215,1489427959.5471570492, -1.1174, -0.5061,  0.1851,-59.4025,-16.0980,-65.1855
1489427959.5472350121,1489427959.5496430397, -1.1174, -0.5061,  0.1851,-59.4025,-16.0980,-65.1855
1489427959.5497210026,1489427959.5520811081, -1.1174, -0.5061,  0.1851,-59.4025,-16.0980,-65.1855
1489427959.5521600246,1489427959.5544450283, -1.1174, -0.5061,  0.1851,-59.4025,-12.1918,-77.3163
1489427959.5545229912,1489427959.5568060875, -1.1174, -0.5061,  0.1851,-70.9076,-15.0604,-77.3163
1489427959.5568840504,1489427959.5591650009, -1.1348, -0.4978, -0.1602,-70.9076,-15.0604,-77.3163
1489427959.5592439175,1489427959.5615870953, -1.1348, -0.4978, -0.1602,-70.9076,-15.0604,-77.3163
1489427959.5616660118,1489427959.5640718937, -1.1348, -0.4978, -0.1602,-70.9076,-15.0604,-77.3163
1489427959.5641500950,1489427959.5665519238, -1.1348, -0.4978, -0.1602,-69.4122,-16.1591,-89.8743
1489427959.5666310787,1489427959.5690391064, -1.1348, -0.4978, -0.1602,-69.4122,-16.1591,-89.8743
1489427959.5691189766,1489427959.5715379715, -1.1348, -0.4978, -0.1602,-69.4122,-16.1591,-89.8743
1489427959.5716159344,1489427959.5740239620, -1.1348, -0.4978, -0.1602,-69.4122,-16.1591,-89.8743
1489427959.5741019249,1489427959.5765020847, -1.1348, -0.4978, -0.1602,-49.1638,-15.1215,-87.7838
1489427959.5765800476,1489427959.5789868832, -1.2585,  1.5366, -0.6113,-49.1638,-15.1215,-87.7838
1489427959.5790638924,1489427959.5814740658, -1.2585,  1.5366, -0.6113,-49.1638,-15.1215,-87.7838
1489427959.5815510750,1489427959.5839550495, -1.2585,  1.5366, -0.6113,-49.1638,-15.1215,-87.7838
1489427959.5840320587,1489427959.5864360332, -1.2585,  1.5366, -0.6113,-49.1638, -9.0332,-72.1741
1489427959.5865130424,1489427959.5889229774, -1.2585,  1.5366, -0.6113,-22.2778, -9.0332,-72.1741
1489427959.5889990330,1489427959.5914199352, -1.2585,  1.5366, -0.6113,-22.2778, -9.0332,-72.1741
1489427959.5914959908,1489427959.5938990116, -1.2585,  1.5366, -0.6113,-22.2778, -9.0332,-72.1741
1489427959.5939750671,1489427959.5963780880, -1.2585,  1.5366, -0.6113,-22.2778, -9.0332,-56.7474
1489427959.5964529514,1489427959.5988590717, -1.9116,  2.1650,  0.2832, -3.1891,-12.8326,-56.7474
1489427959.5989329815,1489427959.6013319492, -1.9116,  2.1650,  0.2832, -3.1891,-12.8326,-56.7474
1489427959.6014070511,1489427959.6036911011, -1.9116,  2.1650,  0.2832, -3.1891,-12.8326,-56.7474
1489427959.6037650108,1489427959.6060490608, -1.9116,  2.1650,  0.2832, -3.1891,-12.8326,-56.7474
1489427959.6061229706,1489427959.6084060669, -1.9116,  2.1650,  0.2832,-38.2233,-30.3040,-80.2307
1489427959.6084840298,1489427959.6107640266, -1.9116,  2.1650,  0.2832,-38.2233,-30.3040,-80.2307
1489427959.6108419895,1489427959.6132459641, -1.9116,  2.1650,  0.2832,-38.2233,-30.3040,-80.2307
1489427959.6133251190,1489427959.6157329082, -1.9116,  2.1650,  0.2832,-38.2233,-30.3040,-80.2307
1489427959.6158120632,1489427959.6182169914, -1.8491, -1.3657,  0.1746,-85.0983,-28.0609,-108.4137
1489427959.6182949543,1489427959.6207039356, -1.8274, -1.3657,  0.1746,-83.8013,-28.0609,-108.4137
1489427959.6207818985,1489427959.6231970787, -1.8274, -1.3657,  0.1746,-83.8013,-28.0609,-108.4137
1489427959.6232750416,1489427959.6256799698, -1.8274, -1.3657,  0.1746,-83.8013,-28.0609,-108.4137
1489427959.6257579327,1489427959.6281659603, -1.8274, -1.3657,  0.1746,-83.8013,-28.0609,-123.2300
1489427959.6282439232,1489427959.6306509972, -1.8274, -1.3657,  0.1746,-66.1621,-16.7542,-123.2300
1489427959.6307289600,1489427959.6330349445, -1.8274, -1.3657,  0.1746,-66.1621,-16.7542,-123.2300
1489427959.6331129074,1489427959.6353969574, -1.8274, -1.3657,  0.1746,-66.1621,-16.7542,-123.2300
1489427959.6355810165,1489427959.6378719807, -1.8274, -0.0425, -0.0093,-66.1621,-16.7542,-123.2300
1489427959.6379520893,1489427959.6402349472, -1.6331, -0.0425, -0.0093,-26.0010, -9.4299,-126.4801
1489427959.6403141022,1489427959.6427500248, -1.6331, -0.0425, -0.0093,-26.0010, -9.4299,-126.4801
1489427959.6428279877,1489427959.6452419758, -1.6331, -0.0425, -0.0093,-26.0010, -9.4299,-126.4801
1489427959.6453208923,1489427959.6477260590, -1.6331, -0.0425, -0.0093,-26.0010, -9.4299,-126.4801
1489427959.6478040218,1489427959.6502120495, -1.6331, -0.0425, -0.0093,-12.6495, -5.1117,-126.2207
1489427959.6502890587,1489427959.6526660919, -1.6331, -0.0425, -0.0093,-12.6495, -5.1117,-126.2207
1489427959.6527419090,1489427959.6550250053, -1.6331, -0.0425, -0.0093,-12.6495, -5.1117,-126.2207
1489427959.6551020145,1489427959.6573879719, -1.6331, -0.0425,  0.1157,-12.6495, -5.1117,-126.2207
1489427959.6574649811,1489427959.6597449780, -0.9968,  0.0779,  0.0828,-12.6495, -5.1117,-126.2207
1489427959.6598229408,1489427959.6621880531, -0.9968,  0.0779,  0.0828,-17.5934, -1.6174,-126.8311
1489427959.6622660160,1489427959.6646780968, -0.9968,  0.0779,  0.0828,-17.5934, -1.6174,-126.8311
1489427959.6647551060,1489427959.6671650410, -0.9968,  0.0779,  0.0828,-17.5934, -1.6174,-126.8311
1489427959.6672420502,1489427959.6696479321, -0.9968,  0.0779,  0.0828,-17.5934, -1.6174,-126.8311
1489427959.6697249413,1489427959.6721489429, -0.9968,  0.0779,  0.0828,-16.4337, -0.2747,-116.8976
1489427959.6722269058,1489427959.6746408939, -0.9968,  0.0779,  0.0828,-16.4337, -0.2747,-116.8976
1489427959.6747190952,1489427959.6771268845, -0.9968,  0.0779,  0.0828,-16.4337, -0.2747,-116.8976
1489427959.6772038937,1489427959.6796159744, -0.9885,  0.0342,  0.0168,-16.4337, -0.2747,-116.8976
1489427959.6796929836,1489427959.6821429729, -0.9885,  0.0342,  0.0168, -4.9591,  1.1749,-104.1718
1489427959.6822159290,1489427959.6846210957, -0.9885,  0.0342,  0.0168, -4.9591,  1.1749,-104.1718
1489427959.6846950054,1489427959.6871039867, -0.9885,  0.0342,  0.0168, -4.9591,  1.1749,-104.1718
1489427959.6871778965,1489427959.6895840168, -0.9885,  0.0342,  0.0168, -4.9591,  1.1749,-104.1718
1489427959.6896579266,1489427959.6920659542, -0.9885,  0.0342,  0.0168, -4.9591,  2.1820,-93.6890
1489427959.6921410561,1489427959.6945500374, -0.9885,  0.0342,  0.0168,  3.5400,  2.1820,-93.6890
1489427959.6946239471,1489427959.6970329285, -0.9885,  0.0342,  0.0168,  3.5400,  2.1820,-93.6890
1489427959.6971070766,1489427959.6995151043, -1.1245,  0.1047, -0.2456,  3.5400,  2.1820,-93.6890
1489427959.6995890141,1489427959.7019629478, -1.1245,  0.1047, -0.2456,  3.5400,  2.1820,-85.8765
1489427959.7020380497,1489427959.7043271065, -1.1245,  0.1047, -0.2456,  6.6833,  1.6937,-84.6558
1489427959.7044010162,1489427959.7066879272, -1.1245,  0.1047, -0.2456,  6.6833,  1.6937,-84.6558
1489427959.7067608833,1489427959.7090420723, -1.1245,  0.1047, -0.2456,  6.6833,  1.6937,-84.6558
1489427959.7091159821,1489427959.7114369869, -1.1245,  0.1047, -0.2456,  6.6833,  1.6937,-84.6558
1489427959.7115108967,1489427959.7139239311, -1.1245,  0.1047, -0.2456, -2.3499,  1.1902,-76.8890
1489427959.7139990330,1489427959.7164039612, -1.1245,  0.1047, -0.2456, -2.3499,  1.1902,-76.8890
1489427959.7164790630,1489427959.7188839912, -1.2783, -0.1353, -0.3591, -2.3499,  1.1902,-76.8890
1489427959.7189569473,1489427959.7213709354, -1.2783, -0.1353, -0.3591, -2.3499,  1.1902,-76.8890
1489427959.7214450836,1489427959.7238509655, -1.2783, -0.1353, -0.3591,-10.1624, -1.9073,-75.4395
1489427959.7239279747,1489427959.7263369560, -1.2783, -0.1353, -0.3591, -8.7585, -1.9073,-75.4395
1489427959.7264089584,1489427959.7288239002, -1.2783, -0.1353, -0.3591, -8.7585, -1.9073,-75.4395
1489427959.7288970947,1489427959.7313630581, -1.2783, -0.1353, -0.3591, -8.7585, -1.9073,-75.4395
1489427959.7314369678,1489427959.7338430882, -1.2783, -0.1353, -0.3591, -8.7585, -1.9073,-75.9583
1489427959.7339169979,1489427959.7363219261, -1.2783, -0.1353, -0.3591, -9.9945, -6.5002,-75.9583
1489427959.7363960743,1489427959.7388019562, -1.1968, -0.0115, -0.1472, -9.9945, -6.5002,-75.9583
1489427959.7389829159,1489427959.7414000034, -1.1968, -0.0115, -0.1472, -9.9945, -6.5002,-75.9583
1489427959.7414751053,1489427959.7438809872, -1.1968, -0.0115, -0.1472, -9.9945, -6.5002,-75.9583
1489427959.7439560890,1489427959.7463569641, -1.1968, -0.0115, -0.1472, -7.8735, -8.2703,-72.4182
1489427959.7464311123,1489427959.7488379478, -1.1968, -0.0115, -0.1472, -7.8735, -8.2703,-72.4182
1489427959.7489120960,1489427959.7513570786, -1.1968, -0.0115, -0.1472, -7.8735, -8.2703,-72.4182
1489427959.7514309883,1489427959.7537169456, -1.1968, -0.0115, -0.1472, -7.8735, -8.2703,-72.4182
1489427959.7537910938,1489427959.7560670376, -1.1968, -0.0115, -0.1472,-10.4218, -8.1329,-68.3746
1489427959.7561430931,1489427959.7584290504, -1.0718,  0.0596, -0.1541,-10.4218, -8.1329,-68.3746
1489427959.7585060596,1489427959.7607889175, -1.1108,  0.0596, -0.1541,-10.4218, -8.1329,-68.3746
1489427959.7608659267,1489427959.7631471157, -1.1108,  0.0596, -0.1541,-10.4218, -8.1329,-68.3746
1489427959.7632250786,1489427959.7655060291, -1.1108,  0.0596, -0.1541,-10.4218, -8.1329,-63.6292
1489427959.7655830383,1489427959.7678658962, -1.1108,  0.0596, -0.1541,-13.9771, -7.4158,-63.6292
1489427959.7679419518,1489427959.7702229023, -1.1108,  0.0596, -0.1541,-13.9771, -7.4158,-63.6292
1489427959.7702989578,1489427959.7726919651, -1.1108,  0.0596, -0.1541,-13.9771, -7.4158,-63.6292
1489427959.7727699280,1489427959.7751779556, -1.1108,  0.0596, -0.1541,-13.9771, -7.4158,-63.6292
1489427959.7752540112,1489427959.7776620388, -1.1108,  0.0596, -0.0291,-10.8337, -7.3242,-58.3344
1489427959.7777390480,1489427959.7801430225, -1.1321,  0.0146, -0.0503,-10.8337, -7.3242,-58.3344
1489427959.7802190781,1489427959.7826321125, -1.1321,  0.0146, -0.0503,-10.8337, -7.3242,-58.3344
1489427959.7827088833,1489427959.7851099968, -1.1321,  0.0146, -0.0503,-10.8337, -7.3242,-58.3344
1489427959.7851860523,1489427959.7875900269, -1.1321,  0.0146, -0.0503, -7.9651, -5.3101,-54.4128
1489427959.7876629829,1489427959.7900710106, -1.1321,  0.0146, -0.0503, -7.9651, -5.3101,-54.4128
1489427959.7901449203,1489427959.7925660610, -1.1321,  0.0146, -0.0503, -7.9651, -5.3101,-54.4128
1489427959.7926390171,1489427959.7950470448, -1.1321,  0.0146, -0.0503, -7.9651, -5.3101,-54.4128
1489427959.7951209545,1489427959.7975299358, -1.1321,  0.0146, -0.0503, -7.9651, -1.4038,-52.2156
1489427959.7976028919,1489427959.8000140190, -1.1296,  0.0276, -0.0159, -6.7139, -2.6703,-52.2156
1489427959.8000869751,1489427959.8025400639, -1.1296,  0.0276, -0.0159, -6.7139, -2.6703,-52.2156
1489427959.8026130199,1489427959.8050239086, -1.1296,  0.0276, -0.0159, -6.7139, -2.6703,-52.2156
1489427959.8050971031,1489427959.8075060844, -1.1296,  0.0276, -0.0159, -6.7139, -2.6703,-52.2156
1489427959.8075780869,1489427959.8099820614, -1.1296,  0.0276, -0.0159, -4.0894,  0.8698,-49.5453
1489427959.8100569248,1489427959.8123850822, -1.1296,  0.0276, -0.0159, -4.0894,  0.8698,-49.5453
1489427959.8124608994,1489427959.8147449493, -1.1296,  0.0276, -0.0159, -4.0894,  0.8698,-49.5453
1489427959.8148190975,1489427959.8170979023, -1.1296,  0.0276, -0.0159, -4.0894,  0.8698,-49.5453
1489427959.8171720505,1489427959.8194520473, -1.1685,  0.0042, -0.0413, -1.8921,  3.5400,-47.3328
1489427959.8195259571,1489427959.8218638897, -1.1685,  0.0042, -0.0413, -1.8921,  3.5400,-47.3328
1489427959.8219389915,1489427959.8243460655, -1.1685,  0.0042, -0.0413, -1.8921,  3.5400,-47.3328
1489427959.8244199753,1489427959.8268249035, -1.1685,  0.0042, -0.0413, -1.8921,  3.5400,-47.3328
1489427959.8268990517,1489427959.8293039799, -1.1685,  0.0042, -0.0413, -1.8921,  7.4463,-45.6085
1489427959.8293769360,1489427959.8317949772, -1.1685,  0.0042, -0.0413,  0.0458,  5.6458,-45.6085
1489427959.8318710327,1489427959.8342790604, -1.1685,  0.0042, -0.0413,  0.0458,  5.6458,-45.6085
1489427959.8343539238,1489427959.8367609978, -1.1685,  0.0042, -0.0413,  0.0458,  5.6458,-45.6085
1489427959.8368360996,1489427959.8392450809, -1.1465,  0.0154, -0.1008,  0.0458,  5.6458,-45.6085
1489427959.8393199444,1489427959.8417398930, -1.1465,  0.0154, -0.1008,  3.7537,  6.7749,-43.7622
1489427959.8419260979,1489427959.8443319798, -1.1465,  0.0154, -0.1008,  3.7537,  6.7749,-43.7622
1489427959.8444058895,1489427959.8468160629, -1.1465,  0.0154, -0.1008,  3.7537,  6.7749,-43.7622
1489427959.8468909264,1489427959.8492960930, -1.1465,  0.0154, -0.1008,  3.7537,  6.7749,-43.7622
1489427959.8493700027,1489427959.8517858982, -1.1465,  0.0154, -0.1008,  8.6365,  5.7220,-40.7715
1489427959.8518610001,1489427959.8542699814, -1.1465,  0.0154, -0.1008,  8.6365,  5.7220,-40.7715
1489427959.8543450832,1489427959.8567519188, -1.1465,  0.0154, -0.1008,  8.6365,  5.7220,-40.7715
1489427959.8568260670,1489427959.8592360020, -1.1509,  0.0232, -0.1697,  8.6365,  5.7220,-40.7715
1489427959.8593111038,1489427959.8617119789, -1.1509,  0.0232, -0.1697, 13.5345,  3.9520,-36.9873
1489427959.8617899418,1489427959.8640680313, -1.1509,  0.0232, -0.1697, 13.5345,  3.9520,-36.9873
1489427959.8641428947,1489427959.8664250374, -1.1509,  0.0232, -0.1697, 13.5345,  3.9520,-36.9873
1489427959.8665020466,1489427959.8687880039, -1.1509,  0.0232, -0.1697, 13.5345,  3.9520,-36.9873
1489427959.8688659668,1489427959.8711891174, -1.1509,  0.0232, -0.1697, 13.5345,  3.9520,-34.2865
1489427959.8712649345,1489427959.8735458851, -1.1509,  0.0232, -0.1697, 17.0441,  2.1210,-34.2865
1489427959.8736228943,1489427959.8759028912, -1.1509,  0.0232, -0.1697, 17.0441,  2.1210,-34.2865
1489427959.8759789467,1489427959.8782570362, -1.1509,  0.0107, -0.1760, 17.0441,  2.1210,-34.2865
1489427959.8783340454,1489427959.8806130886, -1.1445,  0.0107, -0.1760, 17.0441,  2.1210,-34.2865
1489427959.8806900978,1489427959.8831601143, -1.1445,  0.0107, -0.1760, 20.3247,  0.3204,-31.4484
1489427959.8832368851,1489427959.8856449127, -1.1445,  0.0107, -0.1760, 20.3247,  0.3204,-31.4484
1489427959.8857209682,1489427959.8881289959, -1.1445,  0.0107, -0.1760, 20.3247,  0.3204,-31.4484
1489427959.8882060051,1489427959.8906140327, -1.1445,  0.0107, -0.1760, 20.3247,  0.3204,-31.4484
1489427959.8906910419,1489427959.8931460381, -1.1445,  0.0107, -0.1760, 21.0114, -0.5341,-29.5868
1489427959.8932240009,1489427959.8956339359, -1.1445,  0.0107, -0.1760, 21.0114, -0.5341,-29.5868
1489427959.8957118988,1489427959.8981199265, -1.1445,  0.0107, -0.2029, 21.0114, -0.5341,-29.5868
1489427959.8981978893,1489427959.9006040096, -1.1479,  0.0332, -0.2029, 21.0114, -0.5341,-29.5868
1489427959.9006819725,1489427959.9031300545, -1.1479,  0.0332, -0.2029, 21.0114, -0.5341,-29.6173
1489427959.9032080173,1489427959.9056129456, -1.1479,  0.0332, -0.2029, 18.8293, -0.9613,-29.6173
1489427959.9056890011,1489427959.9080989361, -1.1479,  0.0332, -0.2029, 18.8293, -0.9613,-29.6173
1489427959.9081768990,1489427959.9105830193, -1.1479,  0.0332, -0.2029, 18.8293, -0.9613,-29.6173
1489427959.9106600285,1489427959.9130740166, -1.1479,  0.0332, -0.2029, 18.8293, -0.9613,-29.6173
1489427959.9131519794,1489427959.9155590534, -1.1479,  0.0332, -0.2029, 14.1754, -0.7172,-30.7465
1489427959.9156370163,1489427959.9180409908, -1.1479,  0.0332, -0.1521, 14.1754, -0.7172,-30.7465
1489427959.9181189537,1489427959.9205310345, -1.1396, -0.0178, -0.1521, 14.1754, -0.7172,-30.7465
1489427959.9206089973,1489427959.9229280949, -1.1396, -0.0178, -0.1521, 14.1754, -0.7172,-30.7465
1489427959.9230060577,1489427959.9252910614, -1.1396, -0.0178, -0.1521, 12.3291, -0.7782,-31.9061
1489427959.9253699780,1489427959.9276549816, -1.1396, -0.0178, -0.1521, 12.3291, -0.7782,-31.9061
1489427959.9277319908,1489427959.9300119877, -1.1396, -0.0178, -0.1521, 12.3291, -0.7782,-31.9061
1489427959.9300889969,1489427959.9324610233, -1.1396, -0.0178, -0.1521, 12.3291, -0.7782,-31.9061
1489427959.9325399399,1489427959.9349410534, -1.1396, -0.0178, -0.1521, 12.3291, -0.7782,-32.6385
1489427959.9350180626,1489427959.9374260902, -1.1396, -0.0178, -0.1521, 11.0474, -0.8545,-32.6385
1489427959.9375040531,1489427959.9399089813, -1.1348, -0.0227, -0.1218, 11.0474, -0.8545,-32.6385
1489427959.9399869442,1489427959.9424040318, -1.1348, -0.0227, -0.1218, 11.0474, -0.8545,-32.6385
1489427959.9425890446,1489427959.9449999332, -1.1348, -0.0227, -0.1218, 11.0474, -0.8545,-32.6385
1489427959.9450778961,1489427959.9474859238, -1.1348, -0.0227, -0.1218,  9.9792, -0.7019,-34.4849
1489427959.9475610256,1489427959.9499690533, -1.1348, -0.0227, -0.1218,  9.9792, -0.7019,-34.4849
1489427959.9500439167,1489427959.9524550438, -1.1348, -0.0227, -0.1218,  9.9792, -0.7019,-34.4849
1489427959.9525310993,1489427959.9549400806, -1.1348, -0.0227, -0.1218,  9.9792, -0.7019,-34.4849
1489427959.9550158978,1489427959.9574270248, -1.1348, -0.0227, -0.1218,  9.5062, -1.3885,-36.5753
1489427959.9575018883,1489427959.9599080086, -1.1350, -0.0254, -0.1445,  9.5062, -1.3885,-36.5753
1489427959.9599831104,1489427959.9624009132, -1.1350, -0.0254, -0.1445,  9.5062, -1.3885,-36.5753
1489427959.9624741077,1489427959.9648869038, -1.1350, -0.0254, -0.1445,  9.5062, -1.3885,-36.5753
1489427959.9649610519,1489427959.9673719406, -1.1350, -0.0254, -0.1445,  9.9335, -2.4414,-39.3982
1489427959.9674460888,1489427959.9698560238, -1.1350, -0.0254, -0.1445,  9.9335, -2.4414,-39.3982
1489427959.9699299335,1489427959.9722740650, -1.1350, -0.0254, -0.1445,  9.9335, -2.4414,-39.3982
1489427959.9723479748,1489427959.9746310711, -1.1350, -0.0254, -0.1445,  9.9335, -2.4414,-39.3982
1489427959.9747049809,1489427959.9769830704, -1.1350, -0.0254, -0.1445,  9.9335, -2.4414,-41.5955
1489427959.9770569801,1489427959.9793419838, -1.1567, -0.0251, -0.1685, 12.6038, -3.5248,-41.5955
1489427959.9794199467,1489427959.9818120003, -1.1567, -0.0251, -0.1685, 12.6038, -3.5248,-41.5955
1489427959.9818890095,1489427959.9842960835, -1.1567, -0.0251, -0.1685, 12.6038, -3.5248,-41.5955
1489427959.9843730927,1489427959.9867780209, -1.1567, -0.0251, -0.1685, 12.6038, -3.5248,-41.5955
1489427959.9868550301,1489427959.9892570972, -1.1567, -0.0251, -0.1685, 14.9231, -4.2114,-44.6625
1489427959.9893341064,1489427959.9917509556, -1.1567, -0.0251, -0.1685, 14.9231, -4.2114,-44.6625
1489427959.9918289185,1489427959.9942278862, -1.1567, -0.0251, -0.1685, 14.9231, -4.2114,-44.6625
1489427959.9943039417,1489427959.9967069626, -1.1567, -0.0251, -0.1685, 14.9231, -4.2114,-44.6625
1489427959.9967839718,1489427959.9991869926, -1.1665,  0.0266, -0.1689, 14.7247, -5.7831,-48.4314
1489427959.9992630482,1489427960.0016829967, -1.1665,  0.0266, -0.1689, 14.7247, -5.7831,-48.4314
1489427960.0017600060,1489427960.0041620731, -1.1665,  0.0266, -0.1689, 14.7247, -5.7831,-48.4314
1489427960.0042390823,1489427960.0066421032, -1.1665,  0.0266, -0.1689, 14.7247, -5.7831,-48.4314
1489427960.0067191124,1489427960.0091218948, -1.1665,  0.0266, -0.1689, 14.7247, -6.4392,-50.4150
1489427960.0091979504,1489427960.0116119385, -1.1665,  0.0266, -0.1689, 12.7411, -6.4392,-50.4150
1489427960.0116889477,1489427960.0141000748, -1.1665,  0.0266, -0.1689, 12.7411, -6.4392,-50.4150
1489427960.0141770840,1489427960.0165829659, -1.1665,  0.0266, -0.1689, 12.7411, -6.4392,-50.4150
1489427960.0166609287,1489427960.0190689564, -1.1721, -0.0085, -0.1809, 12.7411, -6.4392,-54.3213
1489427960.0191469193,1489427960.0215349197, -1.1721, -0.0085, -0.1809,  9.8267, -7.8888,-52.2919
1489427960.0216100216,1489427960.0238919258, -1.1721, -0.0085, -0.1809,  9.8267, -7.8888,-52.2919
1489427960.0239660740,1489427960.0262498856, -1.1721, -0.0085, -0.1809,  9.8267, -7.8888,-52.2919
1489427960.0263240337,1489427960.0286030769, -1.1721, -0.0085, -0.1809,  9.8267, -7.8888,-52.2919
1489427960.0286788940,1489427960.0309948921, -1.1721, -0.0085, -0.1809,  6.9427, -9.9792,-54.1534
1489427960.0310699940,1489427960.0334770679, -1.1721, -0.0085, -0.1809,  6.9427, -9.9792,-54.1534
1489427960.0335519314,1489427960.0359530449, -1.1721, -0.0085, -0.1809,  6.9427, -9.9792,-54.1534
1489427960.0360279083,1489427960.0384340286, -1.1721, -0.0085, -0.1653,  6.9427, -9.9792,-54.1534
1489427960.0385088921,1489427960.0409510136, -1.1440, -0.0393, -0.1653,  6.9427,-10.8948,-56.7017
1489427960.0410280228,1489427960.0434360504, -1.1440, -0.0393, -0.1653,  4.2572,-10.8948,-56.7017
1489427960.0435121059,1489427960.0459189415, -1.1440, -0.0393, -0.1653,  4.2572,-10.8948,-56.7017
1489427960.0461020470,1489427960.0485100746, -1.1440, -0.0393, -0.1653,  4.2572,-10.8948,-56.7017
1489427960.0485870838,1489427960.0510048866, -1.1440, -0.0393, -0.1653,  4.2572,-10.8948,-58.3496
1489427960.0510818958,1489427960.0534849167, -1.1440, -0.0393, -0.1653,  1.8921,-11.2610,-58.3496
1489427960.0535619259,1489427960.0559670925, -1.1440, -0.0393, -0.1653,  1.8921,-11.2610,-58.3496
1489427960.0560429096,1489427960.0584509373, -1.1440, -0.1643, -0.1401,  1.8921,-11.2610,-58.3496
1489427960.0585260391,1489427960.0609378815, -1.1382, -0.1262, -0.1401,  1.8921,-11.2610,-58.3496
1489427960.0610148907,1489427960.0634200573, -1.1382, -0.1262, -0.1401,  0.5951,-11.9324,-59.6008
1489427960.0634970665,1489427960.0659039021, -1.1382, -0.1262, -0.1401,  0.5951,-11.9324,-59.6008
1489427960.0659809113,1489427960.0683829784, -1.1382, -0.1262, -0.1401,  0.5951,-11.9324,-59.6008
1489427960.0684590340,1489427960.0708649158, -1.1382, -0.1262, -0.1401,  0.5951,-11.9324,-59.6008
1489427960.0710060596,1489427960.0732870102, -1.1382, -0.1262, -0.1401,  0.4272,-13.4735,-59.8297
1489427960.0733630657,1489427960.0756449699, -1.1382, -0.1262, -0.1401,  0.4272,-13.4735,-59.8297
1489427960.0757200718,1489427960.0780060291, -1.1382, -0.1262, -0.0776,  0.4272,-13.4735,-59.8297
1489427960.0780820847,1489427960.0803589821, -1.1489, -0.1584, -0.1091,  0.4272,-13.4735,-59.8297
1489427960.0804359913,1489427960.0828340054, -1.1489, -0.1584, -0.1091,  0.4272,-13.4735,-60.0739
1489427960.0829119682,1489427960.0853219032, -1.1489, -0.1584, -0.1091,  0.5798,-13.0768,-60.0739
1489427960.0853989124,1489427960.0878078938, -1.1489, -0.1584, -0.1091,  0.5798,-13.0768,-60.0739
1489427960.0878839493,1489427960.0902910233, -1.1489, -0.1584, -0.1091,  0.5798,-13.0768,-60.0739
1489427960.0903689861,1489427960.0927860737, -1.1489, -0.1584, -0.1091,  0.5798,-13.0768,-60.0739
1489427960.0928640366,1489427960.0952670574, -1.1489, -0.1584, -0.1091,  2.6703,-13.3667,-59.3414
1489427960.0953431129,1489427960.0977458954, -1.1489, -0.1584, -0.1091,  2.6703,-13.3667,-59.3414
1489427960.0978229046,1489427960.1002318859, -1.2271, -0.1836, -0.0344,  2.6703,-13.3667,-59.3414
1489427960.1003088951,1489427960.1027600765, -1.2271, -0.1836, -0.0344,  2.6703,-13.3667,-59.3414
1489427960.1028370857,1489427960.1052479744, -1.2271, -0.1836, -0.0344,  6.4392,-14.0076,-58.6853
1489427960.1053249836,1489427960.1077330112, -1.2271, -0.1836, -0.0344,  6.4392,-14.0076,-58.6853
1489427960.1078100204,1489427960.1102089882, -1.2271, -0.1836, -0.0344,  6.4392,-14.0076,-58.6853
1489427960.1102850437,1489427960.1127638817, -1.2271, -0.1836, -0.0344,  6.4392,-14.0076,-58.6853
1489427960.1128408909,1489427960.1152439117, -1.2271, -0.1836, -0.0344,  8.1177,-13.0463,-58.7463
1489427960.1153209209,1489427960.1177239418, -1.2271, -0.1836, -0.0344,  8.1177,-13.0463,-58.7463
1489427960.1178009510,1489427960.1202061176, -1.2874, -0.1543, -0.1155,  8.1177,-13.0463,-58.7463
1489427960.1202828884,1489427960.1226570606, -1.2874, -0.1543, -0.1155,  8.1177,-13.0463,-58.7463
1489427960.1227350235,1489427960.1250219345, -1.2874, -0.1543, -0.1155,  8.1177,-13.0463,-58.4717
1489427960.1250989437,1489427960.1273748875, -1.2874, -0.1543, -0.1155,  7.8735,-12.2223,-58.4717
1489427960.1274509430,1489427960.1297340393, -1.2874, -0.1543, -0.1155,  7.8735,-12.2223,-58.4717
1489427960.1298100948,1489427960.1321530342, -1.2874, -0.1543, -0.1155,  7.8735,-12.2223,-58.4717
1489427960.1322300434,1489427960.1345059872, -1.2874, -0.1543, -0.1155,  7.8735,-12.2223,-58.4717
1489427960.1345829964,1489427960.1368639469, -1.2874, -0.1543, -0.1155,  9.1095,-12.1460,-58.5938
1489427960.1369409561,1489427960.1392209530, -1.3218, -0.1902, -0.1182,  9.1095,-12.1460,-58.5938
1489427960.1392979622,1489427960.1416358948, -1.3218, -0.1902, -0.1182,  9.1095,-12.1460,-58.5938
1489427960.1417140961,1489427960.1441218853, -1.3218, -0.1902, -0.1182,  9.1095,-12.1460,-58.5938
1489427960.1442000866,1489427960.1466059685, -1.3218, -0.1902, -0.1182,  9.1095,-13.2446,-59.7687
1489427960.1466829777,1489427960.1490929127, -1.3218, -0.1902, -0.1182,  9.2316,-13.2446,-59.7687
1489427960.1492769718,1489427960.1517360210, -1.3218, -0.1902, -0.1182,  9.2316,-13.2446,-59.7687
1489427960.1518130302,1489427960.1542210579, -1.3218, -0.1902, -0.1182,  9.2316,-13.2446,-59.7687
1489427960.1542971134,1489427960.1566998959, -1.3218, -0.1902, -0.1182,  9.2316,-13.2446,-63.4003
1489427960.1567769051,1489427960.1591799259, -1.3218, -0.1929, -0.0544, 11.7950,-15.2740,-63.4003
1489427960.1592578888,1489427960.1616680622, -1.3130, -0.1929, -0.0544, 11.7950,-15.2740,-63.4003
1489427960.1617469788,1489427960.1641499996, -1.3130, -0.1929, -0.0544, 11.7950,-15.2740,-63.4003
1489427960.1642279625,1489427960.1666378975, -1.3130, -0.1929, -0.0544, 11.7950,-15.2740,-63.4003
1489427960.1667160988,1489427960.1691188812, -1.3130, -0.1929, -0.0544, 16.4032,-17.5323,-67.5659
1489427960.1691970825,1489427960.1716148853, -1.3130, -0.1929, -0.0544, 16.4032,-17.5323,-67.5659
1489427960.1716940403,1489427960.1741011143, -1.3130, -0.1929, -0.0544, 16.4032,-17.5323,-67.5659
1489427960.1741809845,1489427960.1765849590, -1.3130, -0.1929, -0.0544, 16.4032,-17.5323,-67.5659
1489427960.1766641140,1489427960.1790709496, -1.3130, -0.1147, -0.0347, 17.7917,-20.4010,-72.6318
1489427960.1791510582,1489427960.1815369129, -1.3159, -0.1147, -0.0347, 17.7917,-20.4010,-72.6318
1489427960.1816179752,1489427960.1839001179, -1.3159, -0.1147, -0.0347, 17.7917,-20.4010,-72.6318
1489427960.1839790344,1489427960.1862649918, -1.3159, -0.1147, -0.0347, 17.7917,-20.4010,-72.6318
1489427960.1863451004,1489427960.1886260509, -1.3159, -0.1147, -0.0347, 17.7917,-20.4010,-79.7882
1489427960.1887049675,1489427960.1910109520, -1.3159, -0.1147, -0.0347, 17.5781,-22.2931,-79.7882
1489427960.1910901070,1489427960.1934769154, -1.3159, -0.1147, -0.0347, 17.5781,-22.2931,-79.7882
1489427960.1935560703,1489427960.1959450245, -1.3159, -0.1147, -0.0347, 17.5781,-22.2931,-79.7882
1489427960.1960239410,1489427960.1984169483, -1.3159, -0.1147,  0.0879, 17.5781,-22.2931,-79.7882
1489427960.1984961033,1489427960.2008841038, -1.3726, -0.0598,  0.0879, 15.4877,-23.3154,-86.6394
1489427960.2010109425,1489427960.2034029961, -1.3726, -0.0598,  0.0879, 15.4877,-23.3154,-86.6394
1489427960.2034819126,1489427960.2058711052, -1.3726, -0.0598,  0.0879, 15.4877,-23.3154,-86.6394
1489427960.2059490681,1489427960.2083430290, -1.3726, -0.0598,  0.0879, 15.4877,-23.3154,-86.6394
1489427960.2084228992,1489427960.2108130455, -1.3726, -0.0598,  0.0879,  6.4850,-25.6500,-92.0105
1489427960.2108900547,1489427960.2132999897, -1.3726, -0.0598,  0.0879,  6.4850,-25.6500,-92.0105
1489427960.2133769989,1489427960.2157440186, -1.3726, -0.0598,  0.0879,  6.4850,-25.6500,-92.0105
1489427960.2158210278,1489427960.2181890011, -1.3726, -0.0598,  0.0879,  6.4850,-25.6500,-92.0105
1489427960.2182650566,1489427960.2206299305, -1.4233, -0.0354,  0.1125, -5.2338,-28.4576,-97.2595
1489427960.2207069397,1489427960.2231969833, -1.4233, -0.0354,  0.1125, -3.9825,-28.4576,-97.2595
1489427960.2232739925,1489427960.2256820202, -1.4233, -0.0354,  0.1125, -3.9825,-28.4576,-97.2595
1489427960.2257590294,1489427960.2281630039, -1.4233, -0.0354,  0.1125, -3.9825,-28.4576,-97.2595
1489427960.2282400131,1489427960.2306509018, -1.4233, -0.0354,  0.1125, -3.9825,-28.4576,-104.2480
1489427960.2307279110,1489427960.2330350876, -1.4233, -0.0354,  0.1125, -8.6823,-33.2184,-104.2480
1489427960.2331130505,1489427960.2353971004, -1.4233, -0.0354,  0.1125, -8.6823,-33.2184,-104.2480
1489427960.2354750633,1489427960.2377550602, -1.4233, -0.0354,  0.1125, -8.6823,-33.2184,-104.2480
1489427960.2378330231,1489427960.2401111126, -1.5251, -0.0745, -0.1001, -8.6823,-33.2184,-104.2480
1489427960.2401878834,1489427960.2425029278, -1.5251, -0.0745, -0.1001, -6.6223,-37.3230,-113.4644
1489427960.2425808907,1489427960.2448599339, -1.5251, -0.0745, -0.1001, -6.6223,-37.3230,-113.4644
1489427960.2449369431,1489427960.2472169399, -1.5251, -0.0745, -0.1001, -6.6223,-37.3230,-113.4644
1489427960.2472929955,1489427960.2495689392, -1.5251, -0.0745, -0.1001, -6.6223,-37.3230,-113.4644
1489427960.2496459484,1489427960.2521250248, -1.5251, -0.0745, -0.1001, -6.6223,-41.2292,-122.3450
1489427960.2523078918,1489427960.2547070980, -1.5251, -0.0745, -0.1001, -0.6866,-39.8560,-122.3450
1489427960.2547850609,1489427960.2571740150, -1.5251, -0.0745, -0.1001, -0.6866,-39.8560,-122.3450
1489427960.2572529316,1489427960.2596430779, -1.7239,  0.0312, -0.2075, -0.6866,-39.8560,-122.3450
1489427960.2597210407,1489427960.2621328831, -1.7239,  0.0312, -0.2075, -0.6866,-39.8560,-130.1575
1489427960.2622110844,1489427960.2646069527, -1.7239,  0.0312, -0.2075,  9.1858,-41.5497,-131.2103
1489427960.2646839619,1489427960.2670838833, -1.7239,  0.0312, -0.2075,  9.1858,-41.5497,-131.2103
1489427960.2671608925,1489427960.2695529461, -1.7239,  0.0312, -0.2075,  9.1858,-41.5497,-131.2103
1489427960.2696290016,1489427960.2720320225, -1.7239,  0.0312, -0.2075,  9.1858,-41.5497,-131.2103
1489427960.2721099854,1489427960.2745029926, -1.7239,  0.0312, -0.2075, 21.3318,-46.5240,-140.0299
1489427960.2745831013,1489427960.2769749165, -1.7239,  0.0312, -0.2075, 21.3318,-46.5240,-140.0299
1489427960.2770550251,1489427960.2794470787, -1.9534,  0.1758, -0.1614, 21.3318,-46.5240,-140.0299
1489427960.2795259953,1489427960.2819240093, -1.9534,  0.1758, -0.1614, 21.3318,-46.5240,-140.0299
1489427960.2820029259,1489427960.2843959332, -1.9534,  0.1758, -0.1614, 26.3672,-51.1932,-151.4130
1489427960.2844750881,1489427960.2868618965, -1.9534,  0.1758, -0.1614, 26.3672,-51.1932,-151.4130
1489427960.2869400978,1489427960.2893300056, -1.9534,  0.1758, -0.1614, 26.3672,-51.1932,-151.4130
1489427960.2894089222,1489427960.2918059826, -1.9534,  0.1758, -0.1614, 26.3672,-51.1932,-151.4130
1489427960.2918848991,1489427960.2942759991, -1.9534,  0.1758, -0.1614, 26.3672,-51.1932,-165.3748
1489427960.2943549156,1489427960.2967519760, -1.9534,  0.1758, -0.1614, 38.1622,-52.9022,-165.3748
1489427960.2968299389,1489427960.2992250919, -1.9534,  0.4702, -0.2117, 38.1622,-52.9022,-165.3748
1489427960.2993030548,1489427960.3017580509, -1.9521,  0.4702, -0.2117, 38.1622,-52.9022,-165.3748
1489427960.3018350601,1489427960.3042418957, -1.9521,  0.4702, -0.2117, 38.1622,-52.9022,-165.3748
1489427960.3043210506,1489427960.3067259789, -1.9521,  0.4702, -0.2117, 53.2227,-52.9633,-179.8706
1489427960.3068048954,1489427960.3092100620, -1.9521,  0.4702, -0.2117, 53.2227,-52.9633,-179.8706
1489427960.3092889786,1489427960.3117411137, -1.9521,  0.4702, -0.2117, 53.2227,-52.9633,-179.8706
1489427960.3118200302,1489427960.3142280579, -1.9521,  0.4702, -0.2117, 53.2227,-52.9633,-179.8706
1489427960.3143069744,1489427960.3167181015, -1.9521,  0.4702, -0.2117, 66.0706,-53.8788,-194.1681
1489427960.3167989254,1489427960.3192028999, -1.9521,  0.6018, -0.3542, 66.0706,-53.8788,-194.1681
1489427960.3192830086,1489427960.3217260838, -2.1240,  0.6018, -0.3542, 66.0706,-53.8788,-194.1681
1489427960.3218059540,1489427960.3242130280, -2.1240,  0.6018, -0.3542, 66.0706,-53.8788,-194.1681
1489427960.3242940903,1489427960.3267009258, -2.1240,  0.6018, -0.3542, 79.5135,-53.2532,-203.4607
1489427960.3267800808,1489427960.3291900158, -2.1240,  0.6018, -0.3542, 79.5135,-53.2532,-203.4607
1489427960.3292689323,1489427960.3316819668, -2.1240,  0.6018, -0.3542, 79.5135,-53.2532,-203.4607
1489427960.3317608833,1489427960.3341679573, -2.1240,  0.6018, -0.3542, 79.5135,-53.2532,-203.4607
1489427960.3342471123,1489427960.3366520405, -2.1240,  0.6018, -0.3542, 79.5135,-49.3469,-210.6934
1489427960.3367309570,1489427960.3391389847, -2.1240,  0.1758, -0.3010, 78.1708,-47.3938,-210.6934
1489427960.3392190933,1489427960.3416080475, -2.2930,  0.1758, -0.3010, 78.1708,-47.3938,-210.6934
1489427960.3416879177,1489427960.3439719677, -2.2930,  0.1758, -0.3010, 78.1708,-47.3938,-210.6934
1489427960.3440508842,1489427960.3463299274, -2.2930,  0.1758, -0.3010, 78.1708,-47.3938,-210.6934
1489427960.3464100361,1489427960.3486900330, -2.2930,  0.1758, -0.3010, 57.0679,-54.7638,-215.5609
1489427960.3487689495,1489427960.3510630131, -2.2930,  0.1758, -0.3010, 57.0679,-54.7638,-215.5609
1489427960.3511419296,1489427960.3535339832, -2.2930,  0.1758, -0.3010, 57.0679,-54.7638,-215.5609
1489427960.3537280560,1489427960.3561189175, -2.2930,  0.1758, -0.3010, 57.0679,-54.7638,-215.5609
1489427960.3561990261,1489427960.3585889339, -2.2930,  0.1758, -0.5510, 67.2302,-63.4766,-215.5762
1489427960.3586680889,1489427960.3610639572, -2.0071,  0.3960, -0.5525, 67.2302,-63.4766,-215.5762
1489427960.3611950874,1489427960.3635869026, -2.0071,  0.3960, -0.5525, 67.2302,-63.4766,-215.5762
1489427960.3636660576,1489427960.3660569191, -2.0071,  0.3960, -0.5525, 67.2302,-63.4766,-215.5762
1489427960.3661379814,1489427960.3685278893, -2.0071,  0.3960, -0.5525, 67.2302,-54.8248,-206.1615
1489427960.3686079979,1489427960.3710050583, -2.0071,  0.3960, -0.5525, 56.4880,-54.8248,-206.1615
1489427960.3710839748,1489427960.3734779358, -2.0071,  0.3960, -0.5525, 56.4880,-54.8248,-206.1615
1489427960.3735570908,1489427960.3759489059, -2.0071,  0.3960, -0.5525, 56.4880,-54.8248,-206.1615
1489427960.3760290146,1489427960.3784248829, -2.0071,  0.3960, -0.5525, 56.4880,-54.8248,-190.5365
1489427960.3785030842,1489427960.3808920383, -1.5076,  0.3350, -0.6079, 24.5972,-44.8761,-188.4460
