timestamp_before,timestamp_after,accel_x,accel_y,accel_z,gyro_x,gyro_y,gryo_z
1489428060.2697250843,1489428060.2721879482, -1.1333, -0.0671,  0.0066, -5.0659, -0.7935, -4.1351
1489428060.2723259926,1489428060.2746160030, -1.1333, -0.0671,  0.0066, -5.0659, -0.7935, -4.1351
1489428060.2746889591,1489428060.2769761086, -1.1458, -0.0691,  0.0066, -5.0659, -0.7935, -4.1351
1489428060.2770481110,1489428060.2794098854, -1.1458, -0.0691,  0.0066, -5.0659, -0.7935, -4.2267
1489428060.2794830799,1489428060.2817931175, -1.1458, -0.0691,  0.0066, -5.4932, -0.2289, -4.2267
1489428060.2818648815,1489428060.2841429710, -1.1458, -0.0691,  0.0066, -5.4932, -0.2289, -4.2267
1489428060.2842149734,1489428060.2864921093, -1.1458, -0.0691,  0.0066, -5.4932, -0.2289, -4.2267
1489428060.2865641117,1489428060.2891819477, -1.1323, -0.0669,  0.0181, -5.4932, -0.2289, -4.2267
1489428060.2892549038,1489428060.2915511131, -1.1323, -0.0669,  0.0181, -4.8523, -0.9308, -3.7384
1489428060.2916240692,1489428060.2939069271, -1.1323, -0.0669,  0.0181, -4.8523, -0.9308, -3.7384
1489428060.2939779758,1489428060.2962620258, -1.1323, -0.0669,  0.0181, -4.8523, -0.9308, -3.7384
1489428060.2963318825,1489428060.2986729145, -1.1323, -0.0669,  0.0181, -4.8523, -0.9308, -3.7384
1489428060.2987530231,1489428060.3010659218, -1.1323, -0.0669,  0.0181, -4.8523, -1.2817, -3.7842
1489428060.3011360168,1489428060.3034191132, -1.1323, -0.0669,  0.0181, -4.7760, -1.2817, -3.7842
1489428060.3034899235,1489428060.3057749271, -1.1323, -0.0669,  0.0181, -4.7760, -1.2817, -3.7842
1489428060.3058450222,1489428060.3081319332, -1.1343, -0.0667,  0.0002, -4.7760, -1.2817, -3.7842
1489428060.3082020283,1489428060.3105919361, -1.1343, -0.0667,  0.0002, -4.7760, -1.2817, -3.7842
1489428060.3106629848,1489428060.3130390644, -1.1343, -0.0667,  0.0002, -4.6844, -1.1749, -3.5248
1489428060.3131089211,1489428060.3154759407, -1.1343, -0.0667,  0.0002, -4.6844, -1.1749, -3.5248
1489428060.3155460358,1489428060.3179171085, -1.1343, -0.0667,  0.0002, -4.6844, -1.1749, -3.5248
1489428060.3179869652,1489428060.3204600811, -1.1343, -0.0667,  0.0002, -4.6844, -1.1749, -3.5248
1489428060.3205308914,1489428060.3228409290, -1.1343, -0.0667,  0.0002, -4.5319, -0.9766, -3.6926
1489428060.3229129314,1489428060.3251988888, -1.1343, -0.0667,  0.0002, -4.5319, -0.9766, -3.6926
1489428060.3252699375,1489428060.3275558949, -1.1343, -0.0667,  0.0046, -4.5319, -0.9766, -3.6926
1489428060.3276269436,1489428060.3300509453, -1.1328, -0.0676,  0.0046, -4.5319, -0.9766, -3.6926
1489428060.3301229477,1489428060.3326010704, -1.1328, -0.0676,  0.0046, -4.5319, -0.9766, -3.7689
1489428060.3326721191,1489428060.3349549770, -1.1328, -0.0676,  0.0046, -5.2032, -0.5341, -3.7689
1489428060.3350260258,1489428060.3373100758, -1.1328, -0.0676,  0.0046, -5.2032, -0.5341, -3.7689
1489428060.3373820782,1489428060.3397688866, -1.1328, -0.0676,  0.0046, -5.2032, -0.5341, -3.7689
1489428060.3398399353,1489428060.3422620296, -1.1328, -0.0676,  0.0046, -5.2032, -0.5341, -3.7689
1489428060.3423330784,1489428060.3447110653, -1.1328, -0.0676,  0.0046, -5.7831, -0.5951, -3.8147
1489428060.3447821140,1489428060.3471539021, -1.1328, -0.0676, -0.0579, -5.7831, -0.5951, -3.8147
1489428060.3472249508,1489428060.3496019840, -1.1355, -0.0669, -0.0081, -5.7831, -0.5951, -3.8147
1489428060.3496739864,1489428060.3520660400, -1.1355, -0.0669, -0.0081, -5.7831, -0.5951, -3.8147
1489428060.3521380424,1489428060.3544220924, -1.1355, -0.0669, -0.0081, -5.2185, -0.6561, -3.7079
1489428060.3544929028,1489428060.3567709923, -1.1355, -0.0669, -0.0081, -5.2185, -0.6561, -3.7079
1489428060.3568429947,1489428060.3591289520, -1.1355, -0.0669, -0.0081, -5.2185, -0.6561, -3.7079
1489428060.3592000008,1489428060.3615601063, -1.1355, -0.0669, -0.0081, -5.2185, -0.6561, -3.7079
1489428060.3616321087,1489428060.3640420437, -1.1355, -0.0669, -0.0081, -5.2185, -0.6561, -3.4485
1489428060.3641130924,1489428060.3665199280, -1.1355, -0.0669, -0.0081, -4.9896, -0.8392, -3.4485
1489428060.3665909767,1489428060.3689999580, -1.1345, -0.0676,  0.0032, -4.9896, -0.8392, -3.4485
1489428060.3690710068,1489428060.3715300560, -1.1345, -0.0676,  0.0032, -4.9896, -0.8392, -3.4485
1489428060.3717470169,1489428060.3741540909, -1.1345, -0.0676,  0.0032, -4.9896, -0.8392, -3.4485
1489428060.3742249012,1489428060.3766279221, -1.1345, -0.0676,  0.0032, -5.5847, -0.9613, -3.6011
1489428060.3766989708,1489428060.3791060448, -1.1345, -0.0676,  0.0032, -5.5847, -0.9613, -3.6011
1489428060.3791780472,1489428060.3815920353, -1.1345, -0.0676,  0.0032, -5.5847, -0.9613, -3.6011
1489428060.3816640377,1489428060.3840711117, -1.1345, -0.0676,  0.0032, -5.5847, -0.9613, -3.6011
1489428060.3841419220,1489428060.3865470886, -1.1345, -0.0676,  0.0032, -4.7150, -0.6409, -3.7231
1489428060.3866178989,1489428060.3891520500, -1.1316, -0.0635,  0.0151, -4.7150, -0.6409, -3.7231
1489428060.3892230988,1489428060.3916358948, -1.1316, -0.0635,  0.0151, -4.7150, -0.6409, -3.7231
1489428060.3917078972,1489428060.3941140175, -1.1316, -0.0635,  0.0151, -4.7150, -0.6409, -3.7231
1489428060.3941841125,1489428060.3965899944, -1.1316, -0.0635,  0.0151, -4.7760, -0.7782, -3.6011
1489428060.3967189789,1489428060.3991971016, -1.1316, -0.0635,  0.0151, -4.7760, -0.7782, -3.6011
1489428060.3992691040,1489428060.4023149014, -1.1316, -0.0635,  0.0151, -4.7760, -0.7782, -3.6011
1489428060.4023890495,1489428060.4046759605, -1.1316, -0.0635,  0.0151, -4.7760, -0.7782, -3.6011
1489428060.4047460556,1489428060.4070260525, -1.1316, -0.0635,  0.0151, -4.8523, -0.8240, -3.5858
1489428060.4070971012,1489428060.4093849659, -1.1309, -0.0703,  0.0059, -4.8523, -0.8240, -3.5858
1489428060.4094579220,1489428060.4118180275, -1.1309, -0.0703,  0.0059, -4.8523, -0.8240, -3.5858
1489428060.4118900299,1489428060.4142930508, -1.1309, -0.0703,  0.0059, -4.8523, -0.8240, -3.5858
1489428060.4143650532,1489428060.4167740345, -1.1309, -0.0703,  0.0059, -4.8523, -0.8240, -4.1046
1489428060.4168469906,1489428060.4192500114, -1.1309, -0.0703,  0.0059, -4.8828, -0.3204, -4.1046
1489428060.4193220139,1489428060.4217379093, -1.1309, -0.0703,  0.0059, -4.8828, -0.3204, -4.1046
1489428060.4218099117,1489428060.4242200851, -1.1309, -0.0703,  0.0059, -4.8828, -0.3204, -4.1046
1489428060.4242920876,1489428060.4266951084, -1.1309, -0.0703,  0.0059, -4.8828, -0.3204, -4.1046
1489428060.4267671108,1489428060.4291810989, -1.1370, -0.0679, -0.0098, -4.5166, -1.3733, -3.6316
1489428060.4292509556,1489428060.4316449165, -1.1370, -0.0679, -0.0098, -4.5166, -1.3733, -3.6316
1489428060.4317150116,1489428060.4339990616, -1.1370, -0.0679, -0.0098, -4.5166, -1.3733, -3.6316
1489428060.4340689182,1489428060.4363539219, -1.1370, -0.0679, -0.0098, -4.5166, -1.3733, -3.6316
1489428060.4364240170,1489428060.4387059212, -1.1370, -0.0679, -0.0098, -4.3640, -1.0376, -3.3722
1489428060.4387760162,1489428060.4410610199, -1.1370, -0.0679, -0.0098, -4.3640, -1.0376, -3.3722
1489428060.4411320686,1489428060.4434189796, -1.1370, -0.0679, -0.0098, -4.3640, -1.0376, -3.3722
1489428060.4434890747,1489428060.4457650185, -1.1370, -0.0679, -0.0098, -4.3640, -1.0376, -3.3722
1489428060.4458351135,1489428060.4481270313, -1.1370, -0.0671,  0.0146, -4.3640, -1.0376, -3.3722
1489428060.4481959343,1489428060.4504768848, -1.1404, -0.0671,  0.0146, -5.0507, -0.3510, -3.6774
1489428060.4505479336,1489428060.4529900551, -1.1404, -0.0671,  0.0146, -5.0507, -0.3510, -3.6774
1489428060.4530620575,1489428060.4553489685, -1.1404, -0.0671,  0.0146, -5.0507, -0.3510, -3.6774
1489428060.4554209709,1489428060.4577059746, -1.1404, -0.0671,  0.0146, -5.0507, -0.3510, -3.6774
1489428060.4577760696,1489428060.4600610733, -1.1404, -0.0671,  0.0146, -5.3711, -0.6256, -3.4180
1489428060.4601330757,1489428060.4626610279, -1.1404, -0.0671,  0.0146, -5.3711, -0.6256, -3.4180
1489428060.4627330303,1489428060.4651389122, -1.1404, -0.0671,  0.0146, -5.3711, -0.6256, -3.4180
1489428060.4652099609,1489428060.4676229954, -1.1404, -0.0671,  0.0017, -5.3711, -0.6256, -3.4180
1489428060.4676949978,1489428060.4701011181, -1.1392, -0.0652,  0.0017, -5.3711, -0.5646, -3.4027
1489428060.4701750278,1489428060.4725880623, -1.1392, -0.0652,  0.0017, -4.7150, -0.5646, -3.4027
1489428060.4727840424,1489428060.4751949310, -1.1392, -0.0652,  0.0017, -4.7150, -0.5646, -3.4027
1489428060.4752669334,1489428060.4776730537, -1.1392, -0.0652,  0.0017, -4.7150, -0.5646, -3.4027
1489428060.4777441025,1489428060.4801518917, -1.1392, -0.0652,  0.0017, -4.7150, -0.5646, -3.4332
1489428060.4802238941,1489428060.4826459885, -1.1392, -0.0652,  0.0017, -4.5929, -0.4578, -3.4332
1489428060.4827179909,1489428060.4851279259, -1.1392, -0.0652,  0.0017, -4.5929, -0.4578, -3.4332
1489428060.4851999283,1489428060.4876139164, -1.1392, -0.0652,  0.0093, -4.5929, -0.4578, -3.4332
1489428060.4876859188,1489428060.4900920391, -1.1323, -0.0649,  0.0093, -4.5929, -0.4578, -3.4332
1489428060.4901630878,1489428060.4925799370, -1.1323, -0.0649,  0.0093, -4.5776, -0.3204, -3.2349
1489428060.4926519394,1489428060.4950649738, -1.1323, -0.0649,  0.0093, -4.5776, -0.3204, -3.2349
1489428060.4951360226,1489428060.4975430965, -1.1323, -0.0649,  0.0093, -4.5776, -0.3204, -3.2349
1489428060.4976150990,1489428060.5000178814, -1.1323, -0.0649,  0.0093, -4.5776, -0.3204, -3.2349
1489428060.5000889301,1489428060.5024681091, -1.1323, -0.0649,  0.0093, -4.8218, -0.3052, -3.3112
1489428060.5025389194,1489428060.5048229694, -1.1323, -0.0649,  0.0093, -4.8218, -0.3052, -3.3112
1489428060.5048930645,1489428060.5071790218, -1.1323, -0.0649,  0.0093, -4.8218, -0.3052, -3.3112
1489428060.5072500706,1489428060.5095319748, -1.1316, -0.0676,  0.0015, -4.8218, -0.3052, -3.3112
1489428060.5096039772,1489428060.5119841099, -1.1316, -0.0676,  0.0015, -4.8218, -0.3052, -3.0518
1489428060.5120570660,1489428060.5144670010, -1.1316, -0.0676,  0.0015, -5.1270, -0.7782, -3.0518
1489428060.5145399570,1489428060.5169930458, -1.1316, -0.0676,  0.0015, -5.1270, -0.7782, -3.0518
1489428060.5171520710,1489428060.5195589066, -1.1316, -0.0676,  0.0015, -5.1270, -0.7782, -3.0518
1489428060.5196309090,1489428060.5220520496, -1.1316, -0.0676,  0.0015, -5.1270, -0.7782, -3.0518
1489428060.5221250057,1489428060.5245249271, -1.1316, -0.0676,  0.0015, -5.2948, -0.2441, -3.1433
1489428060.5245969296,1489428060.5269970894, -1.1316, -0.0676,  0.0015, -5.2948, -0.2441, -3.1433
1489428060.5270690918,1489428060.5294740200, -1.1333, -0.0625,  0.0171, -5.2948, -0.2441, -3.1433
1489428060.5295460224,1489428060.5319530964, -1.1333, -0.0625,  0.0171, -5.2948, -0.2441, -3.1433
1489428060.5320239067,1489428060.5344300270, -1.1333, -0.0625,  0.0171, -5.2032, -0.1984, -2.9602
1489428060.5345020294,1489428060.5369100571, -1.1333, -0.0625,  0.0171, -5.2032, -0.1984, -2.9602
1489428060.5369820595,1489428060.5393860340, -1.1333, -0.0625,  0.0171, -5.2032, -0.1984, -2.9602
1489428060.5394570827,1489428060.5418779850, -1.1333, -0.0625,  0.0171, -5.2032, -0.1984, -2.9602
1489428060.5419490337,1489428060.5443549156, -1.1333, -0.0625,  0.0171, -5.2032, -0.3967, -3.1586
1489428060.5444269180,1489428060.5468389988, -1.1333, -0.0625,  0.0171, -4.9896, -0.3967, -3.1586
1489428060.5469100475,1489428060.5493180752, -1.1406, -0.0608,  0.0071, -4.9896, -0.3967, -3.1586
1489428060.5493910313,1489428060.5517699718, -1.1406, -0.0608,  0.0071, -4.9896, -0.3967, -3.1586
1489428060.5518429279,1489428060.5541288853, -1.1406, -0.0608,  0.0071, -4.9896, -0.3967, -3.3569
1489428060.5541999340,1489428060.5564808846, -1.1406, -0.0608,  0.0071, -4.7760, -0.6256, -3.3569
1489428060.5565528870,1489428060.5588378906, -1.1406, -0.0608,  0.0071, -4.7760, -0.6256, -3.3569
1489428060.5589098930,1489428060.5611979961, -1.1406, -0.0608,  0.0071, -4.7760, -0.6256, -3.3569
1489428060.5612690449,1489428060.5635540485, -1.1406, -0.0608,  0.0071, -4.7760, -0.6256, -3.3569
1489428060.5636260509,1489428060.5659039021, -1.1406, -0.0608,  0.0071, -5.2185, -0.8850, -3.2654
1489428060.5659770966,1489428060.5682590008, -1.1406, -0.0654,  0.0105, -5.2185, -0.8850, -3.2654
1489428060.5683300495,1489428060.5706059933, -1.1360, -0.0654,  0.0105, -5.2185, -0.8850, -3.2654
1489428060.5706760883,1489428060.5729939938, -1.1360, -0.0654,  0.0105, -5.2185, -0.8850, -3.2654
1489428060.5730669498,1489428060.5753509998, -1.1360, -0.0654,  0.0105, -5.2185, -0.8850, -3.1738
1489428060.5755341053,1489428060.5778200626, -1.1360, -0.0654,  0.0105, -5.0507, -0.5646, -3.1738
1489428060.5778920650,1489428060.5801770687, -1.1360, -0.0654,  0.0105, -5.0507, -0.5646, -3.1738
1489428060.5802481174,1489428060.5827059746, -1.1360, -0.0654,  0.0105, -5.0507, -0.5646, -3.1738
1489428060.5827789307,1489428060.5851840973, -1.1360, -0.0654,  0.0105, -5.0507, -0.5646, -3.1738
1489428060.5852549076,1489428060.5876600742, -1.1360, -0.0654,  0.0132, -5.3101, -0.4272, -3.3417
1489428060.5877308846,1489428060.5901319981, -1.1313, -0.0642,  0.0132, -5.3101, -0.4272, -3.3417
1489428060.5902040005,1489428060.5926179886, -1.1313, -0.0642,  0.0132, -5.3101, -0.4272, -3.3417
1489428060.5926899910,1489428060.5950961113, -1.1313, -0.0642,  0.0132, -5.3101, -0.4272, -3.3417
1489428060.5951669216,1489428060.5975708961, -1.1313, -0.0642,  0.0132, -5.2643, -0.4272, -3.2654
1489428060.5976409912,1489428060.6000409126, -1.1313, -0.0642,  0.0132, -5.2643, -0.4272, -3.2654
1489428060.6001119614,1489428060.6025629044, -1.1313, -0.0642,  0.0132, -5.2643, -0.4272, -3.2654
1489428060.6026329994,1489428060.6050410271, -1.1313, -0.0642,  0.0132, -5.2643, -0.4272, -3.2654
1489428060.6051120758,1489428060.6075220108, -1.1313, -0.0642,  0.0029, -5.2643, -0.1068, -3.1281
1489428060.6075940132,1489428060.6099960804, -1.1309, -0.0681,  0.0029, -5.1575, -0.1068, -3.1281
1489428060.6100690365,1489428060.6123960018, -1.1309, -0.0681,  0.0029, -5.1575, -0.1068, -3.1281
1489428060.6124680042,1489428060.6147489548, -1.1309, -0.0681,  0.0029, -5.1575, -0.1068, -3.1281
1489428060.6148200035,1489428060.6170930862, -1.1309, -0.0681,  0.0029, -5.1575, -0.1068, -3.1281
1489428060.6171660423,1489428060.6194519997, -1.1309, -0.0681,  0.0029, -5.5389, -0.0610, -2.9755
1489428060.6195230484,1489428060.6218628883, -1.1309, -0.0681,  0.0029, -5.5389, -0.0610, -2.9755
1489428060.6219329834,1489428060.6243329048, -1.1309, -0.0681,  0.0029, -5.5389, -0.0610, -2.9755
1489428060.6244039536,1489428060.6268050671, -1.1309, -0.0681,  0.0029, -5.5389, -0.0610, -2.9755
1489428060.6268761158,1489428060.6292819977, -1.1326, -0.0649,  0.0046, -4.9591, -0.4272, -3.1738
1489428060.6293540001,1489428060.6317729950, -1.1326, -0.0649,  0.0046, -4.9591, -0.4272, -3.1738
1489428060.6318440437,1489428060.6342449188, -1.1326, -0.0649,  0.0046, -4.9591, -0.4272, -3.1738
1489428060.6343169212,1489428060.6367170811, -1.1326, -0.0649,  0.0046, -4.9591, -0.4272, -3.1738
1489428060.6367878914,1489428060.6391909122, -1.1326, -0.0649,  0.0046, -4.9591, -0.4730, -3.3417
1489428060.6392619610,1489428060.6416690350, -1.1326, -0.0649,  0.0046, -4.8828, -0.4730, -3.3417
1489428060.6417410374,1489428060.6441459656, -1.1326, -0.0649,  0.0046, -4.8828, -0.4730, -3.3417
1489428060.6442170143,1489428060.6466219425, -1.1326, -0.0649,  0.0046, -4.8828, -0.4730, -3.3417
1489428060.6466939449,1489428060.6491351128, -1.1372, -0.0662,  0.0027, -4.8828, -0.4730, -3.3417
1489428060.6492059231,1489428060.6516029835, -1.1372, -0.0662,  0.0027, -5.4321, -0.6714, -3.1738
1489428060.6516740322,1489428060.6540451050, -1.1372, -0.0662,  0.0027, -5.4321, -0.6714, -3.1738
1489428060.6541180611,1489428060.6564850807, -1.1372, -0.0662,  0.0027, -5.4321, -0.6714, -3.1738
1489428060.6565558910,1489428060.6589789391, -1.1372, -0.0662,  0.0027, -5.4321, -0.6714, -3.1738
1489428060.6590509415,1489428060.6614530087, -1.1372, -0.0662,  0.0027, -5.4779, -0.6866, -3.2654
1489428060.6615259647,1489428060.6638050079, -1.1372, -0.0662,  0.0027, -5.4779, -0.6866, -3.2654
1489428060.6638760567,1489428060.6661520004, -1.1372, -0.0662,  0.0027, -5.4779, -0.6866, -3.2654
1489428060.6662220955,1489428060.6685039997, -1.1438, -0.0591,  0.0117, -5.4779, -0.6866, -3.2654
1489428060.6685750484,1489428060.6708600521, -1.1438, -0.0591,  0.0117, -5.4779, -0.9155, -3.5248
1489428060.6709868908,1489428060.6732630730, -1.1438, -0.0591,  0.0117, -4.7302, -0.9155, -3.5248
1489428060.6733338833,1489428060.6756160259, -1.1438, -0.0591,  0.0117, -4.7302, -0.9155, -3.5248
1489428060.6756870747,1489428060.6779649258, -1.1438, -0.0591,  0.0117, -4.7302, -0.9155, -3.5248
1489428060.6781430244,1489428060.6804211140, -1.1438, -0.0591,  0.0117, -4.7302, -0.9155, -3.5248
1489428060.6804919243,1489428060.6828939915, -1.1438, -0.0591,  0.0117, -4.7455, -0.9613, -3.4027
1489428060.6829650402,1489428060.6853740215, -1.1438, -0.0591,  0.0117, -4.7455, -0.9613, -3.4027
1489428060.6854441166,1489428060.6878499985, -1.1438, -0.0591,  0.0112, -4.7455, -0.9613, -3.4027
1489428060.6879200935,1489428060.6903269291, -1.1328, -0.0569,  0.0112, -4.7455, -0.9613, -3.4027
1489428060.6903979778,1489428060.6928119659, -1.1328, -0.0569,  0.0112, -5.1575, -0.4272, -3.8757
1489428060.6928820610,1489428060.6952879429, -1.1328, -0.0569,  0.0112, -5.1575, -0.4272, -3.8757
1489428060.6953589916,1489428060.6977651119, -1.1328, -0.0569,  0.0112, -5.1575, -0.4272, -3.8757
1489428060.6978349686,1489428060.7002420425, -1.1328, -0.0569,  0.0112, -5.1575, -0.4272, -3.8757
1489428060.7003130913,1489428060.7027289867, -1.1328, -0.0569,  0.0112, -5.1575, -1.0223, -3.7537
1489428060.7027990818,1489428060.7052080631, -1.1328, -0.0569,  0.0112, -5.5389, -1.0223, -3.7537
1489428060.7052769661,1489428060.7076818943, -1.1328, -0.0569,  0.0037, -5.5389, -1.0223, -3.7537
1489428060.7077510357,1489428060.7101519108, -1.1465, -0.0588,  0.0037, -5.5389, -1.0223, -3.7537
1489428060.7102229595,1489428060.7126410007, -1.1465, -0.0588,  0.0037, -5.5389, -1.0223, -7.6599
1489428060.7127110958,1489428060.7151141167, -1.1465, -0.0588,  0.0037, -4.8065, -0.8087, -4.0436
1489428060.7151861191,1489428060.7175860405, -1.1465, -0.0588,  0.0037, -4.8065, -0.8087, -4.0436
1489428060.7176570892,1489428060.7200629711, -1.1465, -0.0588,  0.0037, -4.8065, -0.8087, -4.0436
1489428060.7201349735,1489428060.7224690914, -1.1465, -0.0588,  0.0037, -4.8065, -0.8087, -4.0436
1489428060.7225399017,1489428060.7248260975, -1.1465, -0.0588,  0.0037, -4.2877, -0.9003, -4.1962
1489428060.7248969078,1489428060.7271759510, -1.1465, -0.0588,  0.0037, -4.2877, -0.9003, -4.1962
1489428060.7272469997,1489428060.7295300961, -1.1394, -0.0586,  0.0068, -4.2877, -0.9003, -4.1962
1489428060.7296030521,1489428060.7319829464, -1.1394, -0.0586,  0.0068, -4.2877, -0.9003, -4.1962
1489428060.7320549488,1489428060.7344610691, -1.1394, -0.0586,  0.0068, -4.2877, -0.7782, -4.4556
1489428060.7345340252,1489428060.7369389534, -1.1394, -0.0586,  0.0068, -4.4556, -0.7782, -4.4556
1489428060.7370109558,1489428060.7394130230, -1.1394, -0.0586,  0.0068, -4.4556, -0.7782, -4.4556
1489428060.7394840717,1489428060.7419340611, -1.1394, -0.0586,  0.0068, -4.4556, -0.7782, -4.4556
1489428060.7420060635,1489428060.7444119453, -1.1394, -0.0586,  0.0068, -4.4556, -0.7782, -4.6234
1489428060.7444839478,1489428060.7468860149, -1.1394, -0.0586,  0.0068, -5.0507, -0.6561, -4.6234
1489428060.7469580173,1489428060.7493669987, -1.1335, -0.0647,  0.0178, -5.0507, -0.6561, -4.6234
1489428060.7494370937,1489428060.7518539429, -1.1335, -0.0647,  0.0178, -5.0507, -0.6561, -4.6234
1489428060.7519259453,1489428060.7543289661, -1.1335, -0.0647,  0.0178, -5.0507, -0.6561, -4.6234
1489428060.7544000149,1489428060.7568058968, -1.1335, -0.0647,  0.0178, -5.0964, -0.9003, -4.1199
1489428060.7568769455,1489428060.7592799664, -1.1335, -0.0647,  0.0178, -5.0964, -0.9003, -4.1199
1489428060.7593510151,1489428060.7617681026, -1.1335, -0.0647,  0.0178, -5.0964, -0.9003, -4.1199
1489428060.7618389130,1489428060.7642419338, -1.1335, -0.0647,  0.0178, -5.0964, -0.9003, -4.1199
1489428060.7643129826,1489428060.7667140961, -1.1335, -0.0647,  0.0178, -5.5389, -0.7324, -3.8147
1489428060.7667860985,1489428060.7691919804, -1.1338, -0.0652, -0.0100, -5.5389, -0.7324, -3.8147
1489428060.7692630291,1489428060.7716319561, -1.1338, -0.0652, -0.0100, -5.5389, -0.7324, -3.8147
1489428060.7717030048,1489428060.7739839554, -1.1338, -0.0652, -0.0100, -5.5389, -0.7324, -3.8147
1489428060.7740540504,1489428060.7763340473, -1.1338, -0.0652, -0.0100, -5.5389, -0.7324, -3.7689
1489428060.7764050961,1489428060.7786829472, -1.1338, -0.0652, -0.0100, -5.3253, -0.9003, -3.7689
1489428060.7787539959,1489428060.7811000347, -1.1338, -0.0652, -0.0100, -5.3253, -0.9003, -3.7689
1489428060.7812769413,1489428060.7836890221, -1.1338, -0.0652, -0.0100, -5.3253, -0.9003, -3.7689
1489428060.7837600708,1489428060.7861659527, -1.1338, -0.0652, -0.0100, -5.3253, -0.9003, -3.7689
1489428060.7862370014,1489428060.7886428833, -1.1338, -0.0579,  0.0071, -4.9133, -0.6866, -3.7994
1489428060.7887139320,1489428060.7911651134, -1.1414, -0.0579,  0.0071, -4.9133, -0.6866, -3.7994
1489428060.7912371159,1489428060.7936480045, -1.1414, -0.0579,  0.0071, -4.9133, -0.6866, -3.7994
1489428060.7937200069,1489428060.7961270809, -1.1414, -0.0579,  0.0071, -4.9133, -0.6866, -3.7994
1489428060.7961990833,1489428060.7986090183, -1.1414, -0.0579,  0.0071, -5.3101, -0.3815, -3.9368
1489428060.7986810207,1489428060.8011369705, -1.1414, -0.0579,  0.0071, -5.3101, -0.3815, -3.9368
1489428060.8012099266,1489428060.8036150932, -1.1414, -0.0579,  0.0071, -5.3101, -0.3815, -3.9368
1489428060.8036859035,1489428060.8060960770, -1.1414, -0.0579,  0.0071, -5.3101, -0.3815, -3.9368
1489428060.8061680794,1489428060.8085730076, -1.1414, -0.0669,  0.0081, -5.3101, -1.0681, -3.9368
1489428060.8086440563,1489428060.8110589981, -1.1355, -0.0669,  0.0081, -4.9133, -1.0681, -3.9368
1489428060.8111310005,1489428060.8135418892, -1.1355, -0.0669,  0.0081, -4.9133, -1.0681, -3.9368
1489428060.8136119843,1489428060.8160250187, -1.1355, -0.0669,  0.0081, -4.9133, -1.0681, -3.9368
1489428060.8160960674,1489428060.8185060024, -1.1355, -0.0669,  0.0081, -4.9133, -1.0681, -3.8910
1489428060.8185770512,1489428060.8209960461, -1.1355, -0.0669,  0.0081, -5.0507, -1.4191, -3.8910
1489428060.8210680485,1489428060.8233489990, -1.1355, -0.0669,  0.0081, -5.0507, -1.4191, -3.8910
1489428060.8234200478,1489428060.8256990910, -1.1355, -0.0669,  0.0081, -5.0507, -1.4191, -3.8910
1489428060.8257699013,1489428060.8280479908, -1.1355, -0.0669,  0.0125, -5.0507, -1.4191, -3.8910
1489428060.8281180859,1489428060.8304040432, -1.1294, -0.0649,  0.0125, -4.6082, -1.1902, -3.7842
1489428060.8304738998,1489428060.8327639103, -1.1294, -0.0649,  0.0125, -4.6082, -1.1902, -3.7842
1489428060.8328340054,1489428060.8351171017, -1.1294, -0.0649,  0.0125, -4.6082, -1.1902, -3.7842
1489428060.8351869583,1489428060.8374629021, -1.1294, -0.0649,  0.0125, -4.6082, -1.1902, -3.7842
1489428060.8375320435,1489428060.8398089409, -1.1294, -0.0649,  0.0125, -4.6082, -1.1902, -3.7842
1489428060.8398780823,1489428060.8422460556, -1.1294, -0.0649,  0.0125, -4.5013, -1.1597, -3.7842
1489428060.8423171043,1489428060.8447229862, -1.1294, -0.0649,  0.0125, -4.5013, -1.1597, -3.7842
1489428060.8447930813,1489428060.8471999168, -1.1294, -0.0649,  0.0125, -4.5013, -1.1597, -3.7842
1489428060.8472700119,1489428060.8496730328, -1.1245, -0.0637,  0.0173, -4.5013, -1.1597, -3.7842
1489428060.8497419357,1489428060.8521499634, -1.1245, -0.0637,  0.0173, -5.0201, -0.9308, -3.9673
1489428060.8522210121,1489428060.8546230793, -1.1245, -0.0637,  0.0173, -5.0201, -0.9308, -3.9673
1489428060.8546950817,1489428060.8571000099, -1.1245, -0.0637,  0.0173, -5.0201, -0.9308, -3.9673
1489428060.8571710587,1489428060.8595728874, -1.1245, -0.0637,  0.0173, -5.0201, -0.9308, -3.9673
1489428060.8596448898,1489428060.8620550632, -1.1245, -0.0637,  0.0173, -5.2795, -0.7019, -3.9368
1489428060.8621249199,1489428060.8645279408, -1.1245, -0.0637,  0.0173, -5.2795, -0.7019, -3.9368
1489428060.8645999432,1489428060.8670029640, -1.1245, -0.0637,  0.0173, -5.2795, -0.7019, -3.9368
1489428060.8670740128,1489428060.8694760799, -1.1272, -0.0664,  0.0010, -5.2795, -0.7019, -3.9368
1489428060.8695480824,1489428060.8719639778, -1.1272, -0.0664,  0.0010, -5.2795, -0.6714, -3.9673
1489428060.8720350266,1489428060.8744409084, -1.1272, -0.0664,  0.0010, -4.4861, -0.6714, -3.9673
1489428060.8745129108,1489428060.8769121170, -1.1272, -0.0664,  0.0010, -4.4861, -0.6714, -3.9673
1489428060.8769838810,1489428060.8793890476, -1.1272, -0.0664,  0.0010, -4.4861, -0.6714, -3.9673
1489428060.8794600964,1489428060.8818171024, -1.1272, -0.0664,  0.0010, -4.4861, -0.6714, -3.8605
1489428060.8819870949,1489428060.8842689991, -1.1272, -0.0664,  0.0010, -5.0964, -0.7935, -3.8605
1489428060.8843410015,1489428060.8866260052, -1.1272, -0.0664,  0.0010, -5.0964, -0.7935, -3.8605
1489428060.8866970539,1489428060.8889789581, -1.1360, -0.0593,  0.0166, -5.0964, -0.7935, -3.8605
1489428060.8890490532,1489428060.8913929462, -1.1360, -0.0593,  0.0166, -5.0964, -0.7935, -3.8605
1489428060.8914630413,1489428060.8938679695, -1.1360, -0.0593,  0.0166, -4.9133, -0.9308, -3.6469
1489428060.8939399719,1489428060.8963429928, -1.1360, -0.0593,  0.0166, -4.9133, -0.9308, -3.6469
1489428060.8964149952,1489428060.8988199234, -1.1360, -0.0593,  0.0166, -4.9133, -0.9308, -3.6469
1489428060.8988919258,1489428060.9013719559, -1.1360, -0.0593,  0.0166, -4.9133, -0.9308, -3.6469
1489428060.9014430046,1489428060.9038479328, -1.1360, -0.0593,  0.0166, -4.4556, -0.3967, -3.9978
1489428060.9039189816,1489428060.9063220024, -1.1360, -0.0593,  0.0166, -4.4556, -0.3967, -3.9978
1489428060.9063920975,1489428060.9088020325, -1.1394, -0.0613,  0.0183, -4.4556, -0.3967, -3.9978
1489428060.9088730812,1489428060.9112958908, -1.1394, -0.0613,  0.0183, -4.4556, -0.3967, -3.9978
1489428060.9113669395,1489428060.9137780666, -1.1394, -0.0613,  0.0183, -4.4556, -0.3967, -4.0741
1489428060.9138491154,1489428060.9162600040, -1.1394, -0.0613,  0.0183, -4.7607, -0.2289, -4.0741
1489428060.9163310528,1489428060.9187390804, -1.1394, -0.0613,  0.0183, -4.7607, -0.2289, -4.0741
1489428060.9188089371,1489428060.9212229252, -1.1394, -0.0613,  0.0183, -4.7607, -0.2289, -4.0741
1489428060.9212939739,1489428060.9237000942, -1.1394, -0.0613,  0.0183, -4.7607, -0.2289, -4.0741
1489428060.9237699509,1489428060.9261770248, -1.1394, -0.0613,  0.0183, -5.0659, -0.7172, -3.8147
1489428060.9262490273,1489428060.9286570549, -1.1394, -0.0623,  0.0027, -5.0659, -0.7172, -3.8147
1489428060.9287290573,1489428060.9311308861, -1.1357, -0.0623,  0.0027, -5.0659, -0.7172, -3.8147
1489428060.9312019348,1489428060.9334850311, -1.1357, -0.0623,  0.0027, -5.0659, -0.7172, -3.8147
1489428060.9335560799,1489428060.9358410835, -1.1357, -0.0623,  0.0027, -5.0049, -0.7477, -3.6774
1489428060.9359130859,1489428060.9381940365, -1.1357, -0.0623,  0.0027, -5.0049, -0.7477, -3.6774
1489428060.9382650852,1489428060.9405450821, -1.1357, -0.0623,  0.0027, -5.0049, -0.7477, -3.6774
1489428060.9406170845,1489428060.9430160522, -1.1357, -0.0623,  0.0027, -5.0049, -0.7477, -3.6774
1489428060.9430871010,1489428060.9454920292, -1.1357, -0.0623,  0.0027, -5.0049, -0.7477, -3.6926
1489428060.9455640316,1489428060.9479689598, -1.1357, -0.0623,  0.0056, -5.1117, -0.5951, -3.6926
1489428060.9480409622,1489428060.9504549503, -1.1389, -0.0640,  0.0056, -5.1117, -0.5951, -3.6926
1489428060.9505269527,1489428060.9529490471, -1.1389, -0.0640,  0.0056, -5.1117, -0.5951, -3.6926
1489428060.9530200958,1489428060.9554190636, -1.1389, -0.0640,  0.0056, -5.1117, -0.5951, -3.6926
1489428060.9554910660,1489428060.9579000473, -1.1389, -0.0640,  0.0056, -4.8676, -1.0376, -3.5706
1489428060.9579710960,1489428060.9603719711, -1.1389, -0.0640,  0.0056, -4.8676, -1.0376, -3.5706
1489428060.9604430199,1489428060.9628560543, -1.1389, -0.0640,  0.0056, -4.8676, -1.0376, -3.5706
1489428060.9629259109,1489428060.9653329849, -1.1389, -0.0640,  0.0056, -4.8676, -1.0376, -3.5706
1489428060.9654040337,1489428060.9678089619, -1.1389, -0.0640, -0.0569, -4.6082, -0.7019, -3.9368
1489428060.9678819180,1489428060.9702849388, -1.1323, -0.0693, -0.0020, -4.6082, -0.7019, -3.9368
1489428060.9703569412,1489428060.9727699757, -1.1323, -0.0693, -0.0020, -4.6082, -0.7019, -3.9368
1489428060.9728419781,1489428060.9752490520, -1.1323, -0.0693, -0.0020, -4.6082, -0.7019, -3.9368
1489428060.9753210545,1489428060.9777278900, -1.1323, -0.0693, -0.0020, -4.6082, -0.9308, -3.8605
1489428060.9777989388,1489428060.9802041054, -1.1323, -0.0693, -0.0020, -4.2267, -0.9308, -3.8605
1489428060.9802749157,1489428060.9825921059, -1.1323, -0.0693, -0.0020, -4.2267, -0.9308, -3.8605
1489428060.9826650620,1489428060.9849450588, -1.1323, -0.0693, -0.0020, -4.2267, -0.9308, -3.8605
1489428060.9851229191,1489428060.9874029160, -1.1323, -0.0693, -0.0020, -4.2267, -0.9308, -3.8605
1489428060.9874739647,1489428060.9897589684, -1.1409, -0.0637,  0.0090, -4.6234, -0.9613, -3.8452
1489428060.9898300171,1489428060.9921889305, -1.1409, -0.0637,  0.0090, -4.6234, -0.9613, -3.8452
1489428060.9922609329,1489428060.9946620464, -1.1409, -0.0637,  0.0090, -4.6234, -0.9613, -3.8452
1489428060.9947340488,1489428060.9971408844, -1.1409, -0.0637,  0.0090, -4.6234, -0.9613, -3.8452
1489428060.9972128868,1489428060.9996221066, -1.1409, -0.0637,  0.0090, -4.3488, -0.6866, -3.7231
1489428060.9996941090,1489428061.0021440983, -1.1409, -0.0637,  0.0090, -4.3488, -0.6866, -3.7231
1489428061.0022170544,1489428061.0046210289, -1.1409, -0.0637,  0.0090, -4.3488, -0.6866, -3.7231
1489428061.0046939850,1489428061.0070989132, -1.1409, -0.0637,  0.0090, -4.3488, -0.6866, -3.7231
1489428061.0071709156,1489428061.0095760822, -1.1362, -0.0684,  0.0078, -4.4403, -0.8087, -3.8147
1489428061.0096480846,1489428061.0120611191, -1.1362, -0.0684,  0.0078, -4.4403, -0.8087, -3.8147
1489428061.0121328831,1489428061.0145399570, -1.1362, -0.0684,  0.0078, -4.4403, -0.8087, -3.8147
1489428061.0146119595,1489428061.0170168877, -1.1362, -0.0684,  0.0078, -4.4403, -0.8087, -3.8147
1489428061.0170888901,1489428061.0194969177, -1.1362, -0.0684,  0.0078, -4.4403, -0.8087, -3.3417
1489428061.0195689201,1489428061.0219869614, -1.1362, -0.0684,  0.0078, -4.5624, -0.5035, -3.3417
1489428061.0220589638,1489428061.0244679451, -1.1362, -0.0684,  0.0078, -4.5624, -0.5035, -3.3417
1489428061.0245409012,1489428061.0269470215, -1.1362, -0.0684,  0.0078, -4.5624, -0.5035, -3.3417
1489428061.0270199776,1489428061.0294260979, -1.1260, -0.0693,  0.0129, -4.5624, -0.5035, -3.3417
1489428061.0294981003,1489428061.0319290161, -1.1260, -0.0693,  0.0129, -4.4861, -0.5493, -3.5095
1489428061.0320000648,1489428061.0342819691, -1.1260, -0.0693,  0.0129, -4.4861, -0.5493, -3.5095
1489428061.0343539715,1489428061.0366370678, -1.1260, -0.0693,  0.0129, -4.4861, -0.5493, -3.5095
1489428061.0367069244,1489428061.0389890671, -1.1260, -0.0693,  0.0129, -4.4861, -0.5493, -3.5095
1489428061.0390589237,1489428061.0413959026, -1.1260, -0.0693,  0.0129, -4.5776, -0.6561, -3.3417
1489428061.0414669514,1489428061.0438740253, -1.1260, -0.0693,  0.0129, -4.5776, -0.6561, -3.3417
1489428061.0439450741,1489428061.0463509560, -1.1260, -0.0693,  0.0129, -4.5776, -0.6561, -3.3417
1489428061.0464220047,1489428061.0488278866, -1.1260, -0.0657,  0.0044, -4.5776, -0.6561, -3.3417
1489428061.0488998890,1489428061.0513470173, -1.1326, -0.0657,  0.0044, -4.5776, -0.6561, -3.4027
1489428061.0514190197,1489428061.0538260937, -1.1326, -0.0657,  0.0044, -4.6082, -0.3510, -3.4027
1489428061.0538980961,1489428061.0563049316, -1.1326, -0.0657,  0.0044, -4.6082, -0.3510, -3.4027
1489428061.0563778877,1489428061.0587849617, -1.1326, -0.0657,  0.0044, -4.6082, -0.3510, -3.4027
1489428061.0588569641,1489428061.0612800121, -1.1326, -0.0657,  0.0044, -4.6082, -0.3510, -3.4027
1489428061.0613520145,1489428061.0637559891, -1.1326, -0.0657,  0.0044, -4.4708, -0.5341, -3.5858
1489428061.0638279915,1489428061.0662341118, -1.1326, -0.0657,  0.0044, -4.4708, -0.5341, -3.5858
1489428061.0663049221,1489428061.0687060356, -1.1326, -0.0596,  0.0059, -4.4708, -0.5341, -3.5858
1489428061.0687780380,1489428061.0711998940, -1.1455, -0.0596,  0.0059, -4.4708, -0.5341, -3.5858
1489428061.0712730885,1489428061.0736799240, -1.1455, -0.0596,  0.0059, -4.6234, -0.9003, -3.4485
1489428061.0737531185,1489428061.0761549473, -1.1455, -0.0596,  0.0059, -4.6234, -0.9003, -3.4485
1489428061.0762269497,1489428061.0786299706, -1.1455, -0.0596,  0.0059, -4.6234, -0.9003, -3.4485
1489428061.0787010193,1489428061.0811569691, -1.1455, -0.0596,  0.0059, -4.6234, -0.9003, -3.4485
1489428061.0812289715,1489428061.0835130215, -1.1455, -0.0596,  0.0059, -4.6082, -0.8545, -3.4332
1489428061.0835850239,1489428061.0858719349, -1.1455, -0.0596,  0.0059, -4.6082, -0.8545, -3.4332
1489428061.0859439373,1489428061.0882260799, -1.1455, -0.1221,  0.0073, -4.6082, -0.8545, -3.4332
1489428061.0884039402,1489428061.0906910896, -1.1379, -0.0649,  0.0073, -4.6082, -0.8545, -3.4332
1489428061.0907630920,1489428061.0931749344, -1.1379, -0.0649,  0.0073, -4.6082, -0.8545, -3.2501
1489428061.0932469368,1489428061.0956349373, -1.1379, -0.0649,  0.0073, -4.9591, -0.7935, -3.2501
1489428061.0957078934,1489428061.0981009007, -1.1379, -0.0649,  0.0073, -4.9591, -0.7935, -3.2501
1489428061.0981740952,1489428061.1005589962, -1.1379, -0.0649,  0.0073, -4.9591, -0.7935, -3.2501
1489428061.1006309986,1489428061.1030321121, -1.1379, -0.0649,  0.0073, -4.9591, -0.7935, -3.2501
1489428061.1031041145,1489428061.1054921150, -1.1379, -0.0649,  0.0073, -5.3101, -0.6409, -3.2806
1489428061.1055641174,1489428061.1079559326, -1.1379, -0.0649,  0.0073, -5.3101, -0.6409, -3.2806
1489428061.1080269814,1489428061.1104109287, -1.1292, -0.0667,  0.0107, -5.3101, -0.6409, -3.2806
1489428061.1104819775,1489428061.1128950119, -1.1292, -0.0667,  0.0107, -5.3101, -0.6409, -3.2806
1489428061.1129651070,1489428061.1153280735, -1.1292, -0.0667,  0.0107, -5.0507, -0.4272, -2.9755
1489428061.1154000759,1489428061.1177620888, -1.1292, -0.0667,  0.0107, -5.0507, -0.4272, -2.9755
1489428061.1178319454,1489428061.1201970577, -1.1292, -0.0667,  0.0107, -5.0507, -0.4272, -2.9755
1489428061.1202681065,1489428061.1226689816, -1.1292, -0.0667,  0.0107, -5.0507, -0.4272, -2.9755
1489428061.1227409840,1489428061.1251471043, -1.1292, -0.0667,  0.0107, -5.0507, -0.4272, -2.9144
1489428061.1252179146,1489428061.1276209354, -1.1292, -0.0667,  0.0107, -4.8370, -0.2594, -2.9144
1489428061.1276919842,1489428061.1301040649, -1.1387, -0.0591, -0.0034, -4.8370, -0.2594, -2.9144
1489428061.1301760674,1489428061.1325170994, -1.1387, -0.0591, -0.0034, -4.8370, -0.2594, -2.9144
1489428061.1325891018,1489428061.1348690987, -1.1387, -0.0591, -0.0034, -4.8370, -0.2594, -2.9144
1489428061.1349411011,1489428061.1372199059, -1.1387, -0.0591, -0.0034, -5.2338, -0.6409, -2.9755
1489428061.1372909546,1489428061.1395690441, -1.1387, -0.0591, -0.0034, -5.2338, -0.6409, -2.9755
1489428061.1396400928,1489428061.1419870853, -1.1387, -0.0591, -0.0034, -5.2338, -0.6409, -2.9755
1489428061.1420590878,1489428061.1444621086, -1.1387, -0.0591, -0.0034, -5.2338, -0.6409, -2.9755
1489428061.1445341110,1489428061.1469419003, -1.1387, -0.0591, -0.0034, -5.3253, -0.9003, -2.8992
1489428061.1470139027,1489428061.1494200230, -1.1396, -0.0603,  0.0022, -5.3253, -0.9003, -2.8992
1489428061.1494910717,1489428061.1519410610, -1.1396, -0.0603,  0.0022, -5.3253, -0.9003, -2.8992
1489428061.1520121098,1489428061.1544189453, -1.1396, -0.0603,  0.0022, -5.3253, -0.9003, -2.8992
1489428061.1544909477,1489428061.1568949223, -1.1396, -0.0603,  0.0022, -5.3253, -0.9003, -3.0670
1489428061.1569659710,1489428061.1593749523, -1.1396, -0.0603,  0.0022, -4.8676, -0.8545, -3.0670
1489428061.1594479084,1489428061.1618609428, -1.1396, -0.0603,  0.0022, -4.8676, -0.8545, -3.0670
1489428061.1619329453,1489428061.1643381119, -1.1396, -0.0603,  0.0022, -4.8676, -0.8545, -3.0670
1489428061.1644101143,1489428061.1668169498, -1.1396, -0.0603,  0.0022, -4.8676, -0.8545, -3.0670
1489428061.1668889523,1489428061.1692960262, -1.1328, -0.0669,  0.0098, -4.9438, -0.7019, -2.8992
1489428061.1693689823,1489428061.1717889309, -1.1328, -0.0669,  0.0098, -4.9438, -0.7019, -2.8992
1489428061.1718609333,1489428061.1742660999, -1.1328, -0.0669,  0.0098, -4.9438, -0.7019, -2.8992
1489428061.1743381023,1489428061.1767430305, -1.1328, -0.0669,  0.0098, -4.9438, -0.7019, -2.8992
1489428061.1768150330,1489428061.1792190075, -1.1328, -0.0669,  0.0098, -4.9133, -0.6256, -2.6550
1489428061.1792910099,1489428061.1817409992, -1.1328, -0.0669,  0.0098, -4.9133, -0.6256, -2.6550
1489428061.1818130016,1489428061.1840920448, -1.1328, -0.0669,  0.0098, -4.9133, -0.6256, -2.6550
1489428061.1841640472,1489428061.1864469051, -1.1328, -0.0669,  0.0098, -4.9133, -0.6256, -2.6550
1489428061.1865179539,1489428061.1888010502, -1.1328, -0.0701, -0.0073, -4.9133, -0.4120, -2.3499
1489428061.1888720989,1489428061.1911740303, -1.1343, -0.0701, -0.0073, -5.3406, -0.4120, -2.3499
1489428061.1913509369,1489428061.1936340332, -1.1343, -0.0701, -0.0073, -5.3406, -0.4120, -2.3499
1489428061.1937060356,1489428061.1959900856, -1.1343, -0.0701, -0.0073, -5.3406, -0.4120, -2.3499
1489428061.1960620880,1489428061.1983420849, -1.1343, -0.0701, -0.0073, -5.3406, -0.4120, -2.3499
1489428061.1984140873,1489428061.2006959915, -1.1343, -0.0701, -0.0073, -4.9744, -0.6561, -2.4719
1489428061.2007660866,1489428061.2031929493, -1.1343, -0.0701, -0.0073, -4.9744, -0.6561, -2.4719
1489428061.2032630444,1489428061.2056701183, -1.1343, -0.0701, -0.0073, -4.9744, -0.6561, -2.4719
1489428061.2057399750,1489428061.2081480026, -1.1343, -0.0701, -0.0015, -4.9744, -0.6561, -2.4719
1489428061.2082190514,1489428061.2106299400, -1.1284, -0.0632, -0.0015, -4.8523, -0.6104, -1.9836
1489428061.2107009888,1489428061.2131528854, -1.1284, -0.0632, -0.0015, -4.8523, -0.6104, -1.9836
1489428061.2132248878,1489428061.2156279087, -1.1284, -0.0632, -0.0015, -4.8523, -0.6104, -1.9836
1489428061.2156999111,1489428061.2181069851, -1.1284, -0.0632, -0.0015, -4.8523, -0.6104, -1.9836
1489428061.2181789875,1489428061.2205810547, -1.1284, -0.0632, -0.0015, -4.8523, -0.7324, -1.6632
1489428061.2206530571,1489428061.2230639458, -1.1284, -0.0632, -0.0015, -4.9438, -0.7324, -1.6632
1489428061.2231359482,1489428061.2255420685, -1.1284, -0.0632, -0.0015, -4.9438, -0.7324, -1.6632
1489428061.2256150246,1489428061.2280199528, -1.1284, -0.0632,  0.0610, -4.9438, -0.7324, -1.6632
1489428061.2280900478,1489428061.2304930687, -1.1313, -0.0649,  0.0093, -4.9438, -0.7324, -1.6632
1489428061.2305641174,1489428061.2329790592, -1.1313, -0.0649,  0.0093, -5.0507, -0.7324, -1.7853
1489428061.2330510616,1489428061.2354509830, -1.1313, -0.0649,  0.0093, -5.0507, -0.7324, -1.7853
1489428061.2355229855,1489428061.2379291058, -1.1313, -0.0649,  0.0093, -5.0507, -0.7324, -1.7853
1489428061.2380011082,1489428061.2404060364, -1.1313, -0.0649,  0.0093, -5.0507, -0.7324, -1.7853
1489428061.2404780388,1489428061.2428328991, -1.1313, -0.0649,  0.0093, -4.7150, -0.8240, -1.6174
1489428061.2429049015,1489428061.2451889515, -1.1313, -0.0649,  0.0093, -4.7150, -0.8240, -1.6174
1489428061.2452600002,1489428061.2475399971, -1.1313, -0.0649,  0.0093, -4.7150, -0.8240, -1.6174
1489428061.2476110458,1489428061.2498910427, -1.1282, -0.0618,  0.0190, -4.7150, -0.8240, -1.6174
1489428061.2499620914,1489428061.2523620129, -1.1282, -0.0618,  0.0190, -4.7150, -0.7782, -1.5564
1489428061.2524330616,1489428061.2548348904, -1.1282, -0.0618,  0.0190, -4.7150, -0.7782, -1.5564
1489428061.2549059391,1489428061.2573111057, -1.1282, -0.0618,  0.0190, -4.7150, -0.7782, -1.5564
1489428061.2573831081,1489428061.2597880363, -1.1282, -0.0618,  0.0190, -4.7150, -0.7782, -1.5564
1489428061.2598600388,1489428061.2622740269, -1.1282, -0.0618,  0.0190, -4.7150, -0.7782, -1.6174
1489428061.2623450756,1489428061.2647480965, -1.1282, -0.0618,  0.0190, -4.3030, -0.4730, -1.6174
1489428061.2648189068,1489428061.2672169209, -1.1282, -0.0618,  0.0190, -4.3030, -0.4730, -1.6174
1489428061.2672879696,1489428061.2696919441, -1.1404, -0.0618,  0.0000, -4.3030, -0.4730, -1.6174
1489428061.2697639465,1489428061.2721838951, -1.1404, -0.0618,  0.0000, -4.3030, -0.4730, -1.6174
1489428061.2722549438,1489428061.2746560574, -1.1404, -0.0618,  0.0000, -4.6539, -0.5188, -1.5411
1489428061.2747271061,1489428061.2771360874, -1.1404, -0.0618,  0.0000, -4.6539, -0.5188, -1.5411
1489428061.2772068977,1489428061.2796180248, -1.1404, -0.0618,  0.0000, -4.6539, -0.5188, -1.5411
1489428061.2796890736,1489428061.2821838856, -1.1404, -0.0618,  0.0000, -4.6539, -0.5188, -1.5411
1489428061.2822539806,1489428061.2846620083, -1.1404, -0.0618,  0.0000, -4.5624, -1.0529, -1.0071
1489428061.2847321033,1489428061.2871959209, -1.1404, -0.0618,  0.0000, -4.5624, -1.0529, -1.0071
1489428061.2872669697,1489428061.2896730900, -1.1355, -0.0652,  0.0076, -4.5624, -1.0529, -1.0071
1489428061.2897450924,1489428061.2921020985, -1.1355, -0.0652,  0.0076, -4.5624, -1.0529, -1.0071
1489428061.2921741009,1489428061.2944569588, -1.1355, -0.0652,  0.0076, -4.5624, -1.1444, -0.9613
1489428061.2946329117,1489428061.2969200611, -1.1355, -0.0652,  0.0076, -3.9825, -1.1444, -0.9613
1489428061.2969920635,1489428061.2992749214, -1.1355, -0.0652,  0.0076, -3.9825, -1.1444, -0.9613
1489428061.2993459702,1489428061.3016328812, -1.1355, -0.0652,  0.0076, -3.9825, -1.1444, -0.9613
1489428061.3017039299,1489428061.3039851189, -1.1355, -0.0652,  0.0076, -3.9825, -1.1444, -0.9613
1489428061.3040568829,1489428061.3063371181, -1.1355, -0.0652,  0.0076, -3.8147, -1.3275, -0.5798
1489428061.3064088821,1489428061.3086910248, -1.1355, -0.0569,  0.0120, -3.8147, -1.3275, -0.5798
1489428061.3087620735,1489428061.3110640049, -1.1394, -0.0569,  0.0120, -3.8147, -1.3275, -0.5798
1489428061.3111350536,1489428061.3135418892, -1.1394, -0.0569,  0.0120, -3.8147, -1.3275, -0.5798
1489428061.3136138916,1489428061.3160200119, -1.1394, -0.0569,  0.0120, -3.7537, -1.4954, -0.4120
1489428061.3160910606,1489428061.3185000420, -1.1394, -0.0569,  0.0120, -3.7537, -1.4954, -0.4120
1489428061.3185710907,1489428061.3209869862, -1.1394, -0.0569,  0.0120, -3.7537, -1.4954, -0.4120
1489428061.3210589886,1489428061.3234651089, -1.1394, -0.0569,  0.0120, -3.7537, -1.4954, -0.4120
1489428061.3235359192,1489428061.3259480000, -1.1394, -0.0569,  0.0120, -3.7537, -1.4954, -1.0223
1489428061.3260180950,1489428061.3284249306, -1.1394, -0.0569,  0.0081, -3.9368, -1.6785, -1.0223
1489428061.3284969330,1489428061.3309481144, -1.1367, -0.0508,  0.0081, -3.9368, -1.6785, -1.0223
1489428061.3310189247,1489428061.3334290981, -1.1367, -0.0508,  0.0081, -3.9368, -1.6785, -1.0223
1489428061.3334989548,1489428061.3359069824, -1.1367, -0.0508,  0.0081, -3.9368, -1.6785, -1.0223
1489428061.3359780312,1489428061.3383870125, -1.1367, -0.0508,  0.0081, -4.4708, -1.8616, -0.9460
1489428061.3384599686,1489428061.3408679962, -1.1367, -0.0508,  0.0081, -4.4708, -1.8616, -0.9460
1489428061.3409919739,1489428061.3433969021, -1.1367, -0.0508,  0.0081, -4.4708, -1.8616, -0.9460
1489428061.3434689045,1489428061.3458759785, -1.1367, -0.0508,  0.0081, -4.4708, -1.8616, -0.9460
1489428061.3459479809,1489428061.3483541012, -1.1367, -0.0508,  0.0090, -4.7607, -2.1515, -1.0529
1489428061.3484249115,1489428061.3508288860, -1.1306, -0.0537,  0.0090, -4.7607, -2.1515, -1.0529
1489428061.3509449959,1489428061.3532290459, -1.1306, -0.0537,  0.0090, -4.7607, -2.1515, -1.0529
1489428061.3533000946,1489428061.3555829525, -1.1306, -0.0537,  0.0090, -4.7607, -2.1515, -1.0529
1489428061.3556530476,1489428061.3579380512, -1.1306, -0.0537,  0.0090, -4.7607, -2.4414, -1.4801
1489428061.3580079079,1489428061.3602890968, -1.1306, -0.0537,  0.0090, -4.9896, -2.4414, -1.4801
1489428061.3603599072,1489428061.3627738953, -1.1306, -0.0537,  0.0090, -4.9896, -2.4414, -1.4801
1489428061.3628458977,1489428061.3652429581, -1.1306, -0.0537,  0.0090, -4.9896, -2.4414, -1.4801
1489428061.3653140068,1489428061.3677079678, -1.1306, -0.0537,  0.0090, -4.9896, -2.4414, -1.4801
1489428061.3677790165,1489428061.3701760769, -1.1335, -0.0481, -0.0027, -5.5542, -2.8534, -2.4567
1489428061.3702449799,1489428061.3726470470, -1.1335, -0.0481, -0.0027, -5.5542, -2.8534, -2.4567
1489428061.3727159500,1489428061.3751120567, -1.1335, -0.0481, -0.0027, -5.5542, -2.8534, -2.4567
1489428061.3751809597,1489428061.3775770664, -1.1335, -0.0481, -0.0027, -5.5542, -2.8534, -2.4567
1489428061.3776469231,1489428061.3800430298, -1.1335, -0.0481, -0.0027, -5.6915, -3.1738, -2.4109
1489428061.3801119328,1489428061.3825290203, -1.1335, -0.0481, -0.0027, -5.6915, -3.1738, -2.4109
1489428061.3826000690,1489428061.3849699497, -1.1335, -0.0481, -0.0027, -5.6915, -3.1738, -2.4109
1489428061.3850400448,1489428061.3874180317, -1.1335, -0.0481, -0.0027, -5.6915, -3.1738, -2.4109
1489428061.3874890804,1489428061.3898930550, -1.1458, -0.0613,  0.0027, -5.6915, -3.3417, -2.5330
1489428061.3899641037,1489428061.3923840523, -1.1458, -0.0613,  0.0027, -5.3406, -3.3417, -2.5330
1489428061.3924551010,1489428061.3948650360, -1.1458, -0.0613,  0.0027, -5.3406, -3.3417, -2.5330
1489428061.3950409889,1489428061.3974449635, -1.1458, -0.0613,  0.0027, -5.3406, -3.3417, -2.5330
1489428061.3975160122,1489428061.3999209404, -1.1458, -0.0613,  0.0027, -5.3406, -3.3417, -2.1210
1489428061.3999910355,1489428061.4023449421, -1.1458, -0.0613,  0.0027, -5.1270, -3.6011, -2.1210
1489428061.4024169445,1489428061.4047040939, -1.1458, -0.0613,  0.0027, -5.1270, -3.6011, -2.1210
1489428061.4047739506,1489428061.4070560932, -1.1458, -0.0613,  0.0027, -5.1270, -3.6011, -2.1210
1489428061.4071259499,1489428061.4094069004, -1.1350, -0.0627, -0.0010, -5.1270, -3.6011, -2.1210
1489428061.4094779491,1489428061.4118559361, -1.1350, -0.0627, -0.0010, -4.4098, -3.8300, -2.0142
1489428061.4119269848,1489428061.4143340588, -1.1350, -0.0627, -0.0010, -4.4098, -3.8300, -2.0142
1489428061.4144039154,1489428061.4168040752, -1.1350, -0.0627, -0.0010, -4.4098, -3.8300, -2.0142
1489428061.4168748856,1489428061.4192800522, -1.1350, -0.0627, -0.0010, -4.4098, -3.8300, -2.0142
1489428061.4193511009,1489428061.4217629433, -1.1350, -0.0627, -0.0010, -4.6082, -4.1504, -1.8158
1489428061.4218330383,1489428061.4242351055, -1.1350, -0.0627, -0.0010, -4.6082, -4.1504, -1.8158
1489428061.4243049622,1489428061.4267079830, -1.1350, -0.0627, -0.0010, -4.6082, -4.1504, -1.8158
1489428061.4267780781,1489428061.4291789532, -1.1350, -0.0574,  0.0117, -4.6082, -4.1504, -1.8158
1489428061.4292490482,1489428061.4316730499, -1.1367, -0.0574,  0.0117, -4.6082, -4.1504, -1.6632
1489428061.4317429066,1489428061.4341480732, -1.1367, -0.0574,  0.0117, -4.3488, -4.5929, -1.6632
1489428061.4342179298,1489428061.4366281033, -1.1367, -0.0574,  0.0117, -4.3488, -4.5929, -1.6632
1489428061.4366979599,1489428061.4391009808, -1.1367, -0.0574,  0.0117, -4.3488, -4.5929, -1.6632
1489428061.4391720295,1489428061.4415869713, -1.1367, -0.0574,  0.0117, -4.3488, -4.5929, -1.6632
1489428061.4416570663,1489428061.4440660477, -1.1367, -0.0574,  0.0117, -4.5319, -4.5929, -1.8768
1489428061.4441349506,1489428061.4465420246, -1.1367, -0.0574,  0.0117, -4.5319, -4.5929, -1.8768
1489428061.4466118813,1489428061.4490230083, -1.1367, -0.0581, -0.0024, -4.5319, -4.5929, -1.8768
1489428061.4490931034,1489428061.4515221119, -1.1404, -0.0581, -0.0024, -4.5319, -4.5929, -1.8768
1489428061.4515929222,1489428061.4538729191, -1.1404, -0.0581, -0.0024, -4.5319, -4.9744, -1.8311
1489428061.4539430141,1489428061.4562220573, -1.1404, -0.0581, -0.0024, -4.5319, -4.9744, -1.8311
1489428061.4562909603,1489428061.4585709572, -1.1404, -0.0581, -0.0024, -4.5319, -4.9744, -1.8311
1489428061.4586410522,1489428061.4609589577, -1.1404, -0.0581, -0.0024, -4.5319, -4.9744, -1.8311
1489428061.4610290527,1489428061.4634280205, -1.1404, -0.0581, -0.0024, -4.5319, -4.9744, -1.5106
1489428061.4634981155,1489428061.4658908844, -1.1404, -0.0581, -0.0024, -3.5095, -5.5237, -1.5106
1489428061.4659600258,1489428061.4683549404, -1.1404, -0.0581,  0.0601, -3.5095, -5.5237, -1.5106
1489428061.4684250355,1489428061.4708199501, -1.1499, -0.0579,  0.0100, -3.5095, -5.5237, -1.5106
1489428061.4708900452,1489428061.4733290672, -1.1499, -0.0579,  0.0100, -3.5095, -5.5237, -1.5106
1489428061.4733989239,1489428061.4757940769, -1.1499, -0.0579,  0.0100, -2.1057, -5.9662, -1.9226
1489428061.4758639336,1489428061.4782600403, -1.1499, -0.0579,  0.0100, -2.1057, -5.9662, -1.9226
1489428061.4783298969,1489428061.4807279110, -1.1499, -0.0579,  0.0100, -2.1057, -5.9662, -1.9226
1489428061.4807980061,1489428061.4831800461, -1.1499, -0.0579,  0.0100, -2.1057, -5.9662, -1.9226
1489428061.4832499027,1489428061.4856140614, -1.1499, -0.0579,  0.0100, -1.0834, -6.4392, -1.6174
1489428061.4856851101,1489428061.4881010056, -1.1499, -0.0579,  0.0100, -1.0834, -6.4392, -1.6174
1489428061.4881711006,1489428061.4905729294, -1.1379, -0.0483,  0.0034, -1.0834, -6.4392, -1.6174
1489428061.4906430244,1489428061.4930520058, -1.1379, -0.0483,  0.0034, -1.0834, -6.4392, -1.6174
1489428061.4931221008,1489428061.4955239296, -1.1379, -0.0483,  0.0034, -1.0834, -7.1259, -1.5106
1489428061.4955949783,1489428061.4979979992, -1.1379, -0.0483,  0.0034, -0.7019, -7.1259, -1.5106
1489428061.4981760979,1489428061.5005829334, -1.1379, -0.0483,  0.0034, -0.7019, -7.1259, -1.5106
1489428061.5006549358,1489428061.5029509068, -1.1379, -0.0483,  0.0034, -0.7019, -7.1259, -1.5106
1489428061.5030241013,1489428061.5053079128, -1.1379, -0.0483,  0.0034, -0.7019, -7.1259, -1.5106
1489428061.5053789616,1489428061.5076639652, -1.1379, -0.0483,  0.0034, -0.3967, -7.7209, -1.8921
1489428061.5077340603,1489428061.5100159645, -1.1426, -0.0271,  0.0110, -0.3967, -7.7209, -1.8921
1489428061.5100870132,1489428061.5124599934, -1.1426, -0.0271,  0.0110, -0.3967, -7.7209, -1.8921
1489428061.5125310421,1489428061.5149359703, -1.1426, -0.0271,  0.0110, -0.3967, -7.7209, -1.8921
1489428061.5150079727,1489428061.5174100399, -1.1426, -0.0271,  0.0110, -1.7548, -8.5297, -2.7771
1489428061.5174810886,1489428061.5198829174, -1.1426, -0.0271,  0.0110, -1.7548, -8.5297, -2.7771
1489428061.5199539661,1489428061.5223720074, -1.1426, -0.0271,  0.0110, -1.7548, -8.5297, -2.7771
1489428061.5224430561,1489428061.5248470306, -1.1426, -0.0271,  0.0110, -1.7548, -8.5297, -2.7771
1489428061.5249180794,1489428061.5273199081, -1.1426, -0.0271,  0.0110, -1.7548, -9.3079, -3.3569
1489428061.5273909569,1489428061.5297999382, -1.1470, -0.0405,  0.0127, -2.7618, -9.3079, -3.3569
1489428061.5298709869,1489428061.5322821140, -1.1470, -0.0405,  0.0127, -2.7618, -9.3079, -3.3569
1489428061.5323529243,1489428061.5347630978, -1.1470, -0.0405,  0.0127, -2.7618, -9.3079, -3.3569
1489428061.5348329544,1489428061.5372419357, -1.1470, -0.0405,  0.0127, -2.7618, -9.3079, -4.0283
1489428061.5373129845,1489428061.5397150517, -1.1470, -0.0405,  0.0127, -2.8229, -9.9030, -4.0283
1489428061.5397861004,1489428061.5422029495, -1.1470, -0.0405,  0.0127, -2.8229, -9.9030, -4.0283
1489428061.5422739983,1489428061.5446779728, -1.1470, -0.0405,  0.0127, -2.8229, -9.9030, -4.0283
1489428061.5447499752,1489428061.5471539497, -1.1470, -0.0405,  0.0127, -2.8229, -9.9030, -4.0283
1489428061.5472249985,1489428061.5496311188, -1.1416, -0.0383,  0.0203, -2.1362,-10.2081, -4.4250
1489428061.5497059822,1489428061.5521090031, -1.1416, -0.0383,  0.0203, -2.1362,-10.2081, -4.4250
1489428061.5521829128,1489428061.5544691086, -1.1416, -0.0383,  0.0203, -2.1362,-10.2081, -4.4250
1489428061.5545420647,1489428061.5568230152, -1.1416, -0.0383,  0.0203, -2.1362,-10.2081, -4.4250
1489428061.5568950176,1489428061.5591809750, -1.1416, -0.0383,  0.0203, -2.3956,-11.0474, -4.4708
1489428061.5592539310,1489428061.5615630150, -1.1416, -0.0383,  0.0203, -2.3956,-11.0474, -4.4708
1489428061.5616369247,1489428061.5639140606, -1.1416, -0.0383,  0.0203, -2.3956,-11.0474, -4.4708
1489428061.5639860630,1489428061.5662679672, -1.1416, -0.0383,  0.0203, -2.3956,-11.0474, -4.4708
1489428061.5663409233,1489428061.5686221123, -1.1416, -0.0383,  0.0159, -2.3956,-11.0474, -4.4708
1489428061.5686950684,1489428061.5709888935, -1.1455, -0.0491,  0.0159, -1.6022,-11.8713, -5.4779
1489428061.5710649490,1489428061.5734710693, -1.1455, -0.0491,  0.0159, -1.6022,-11.8713, -5.4779
1489428061.5735449791,1489428061.5759510994, -1.1455, -0.0491,  0.0159, -1.6022,-11.8713, -5.4779
1489428061.5760259628,1489428061.5784320831, -1.1455, -0.0491,  0.0159, -1.6022,-11.8713, -5.4779
1489428061.5785050392,1489428061.5809509754, -1.1455, -0.0491,  0.0159,  0.1221,-13.0615, -6.2103
1489428061.5810270309,1489428061.5834350586, -1.1455, -0.0491,  0.0159,  0.1221,-13.0615, -6.2103
1489428061.5835111141,1489428061.5859200954, -1.1455, -0.0491,  0.0159,  0.1221,-13.0615, -6.2103
1489428061.5859971046,1489428061.5884010792, -1.1455, -0.0491,  0.0159,  0.1221,-13.0615, -6.2103
1489428061.5884759426,1489428061.5908780098, -1.1550, -0.0125,  0.0083,  0.1221,-13.6871, -7.0953
1489428061.5910038948,1489428061.5934109688, -1.1550, -0.0125,  0.0083,  0.1221,-13.6871, -7.0953
1489428061.5934889317,1489428061.5958909988, -1.1550, -0.0125,  0.0083,  0.1221,-13.6871, -7.0953
1489428061.5959670544,1489428061.5983729362, -1.1550, -0.0125,  0.0083,  0.1221,-13.6871, -7.0953
1489428061.5984499454,1489428061.6008529663, -1.1550, -0.0125,  0.0083,  0.1221,-13.6871, -7.8430
1489428061.6010870934,1489428061.6033749580, -1.1550, -0.0125,  0.0083, -1.1597,-14.9994, -7.8430
1489428061.6034500599,1489428061.6057360172, -1.1550, -0.0125,  0.0083, -1.1597,-14.9994, -7.8430
1489428061.6058089733,1489428061.6080870628, -1.1550, -0.0125,  0.0083, -1.1597,-14.9994, -7.8430
1489428061.6081609726,1489428061.6104431152, -1.1577, -0.0322,  0.0300, -1.1597,-14.9994, -7.8430
1489428061.6105160713,1489428061.6129510403, -1.1577, -0.0322,  0.0300, -2.1667,-16.1896, -8.7128
1489428061.6130249500,1489428061.6154320240, -1.1577, -0.0322,  0.0300, -2.1667,-16.1896, -8.7128
1489428061.6155068874,1489428061.6179111004, -1.1577, -0.0322,  0.0300, -2.1667,-16.1896, -8.7128
1489428061.6179859638,1489428061.6203899384, -1.1577, -0.0322,  0.0300, -2.1667,-16.1896, -8.7128
1489428061.6204650402,1489428061.6228749752, -1.1577, -0.0322,  0.0300, -1.9379,-17.0135, -9.9945
1489428061.6229500771,1489428061.6253559589, -1.1577, -0.0322,  0.0300, -1.9379,-17.0135, -9.9945
1489428061.6254310608,1489428061.6278390884, -1.1577, -0.0322,  0.0300, -1.9379,-17.0135, -9.9945
1489428061.6279139519,1489428061.6303210258, -1.1624, -0.0122,  0.0413, -1.9379,-17.0135, -9.9945
1489428061.6303970814,1489428061.6328170300, -1.1624, -0.0122,  0.0413, -1.9379,-17.7155,-11.1847
1489428061.6328949928,1489428061.6353020668, -1.1624, -0.0122,  0.0413, -2.3956,-17.7155,-11.1847
1489428061.6353778839,1489428061.6377899647, -1.1624, -0.0122,  0.0413, -2.3956,-17.7155,-11.1847
1489428061.6378669739,1489428061.6402759552, -1.1624, -0.0122,  0.0413, -2.3956,-17.7155,-11.1847
1489428061.6403529644,1489428061.6427719593, -1.1624, -0.0122,  0.0413, -2.3956,-17.7155,-13.1226
1489428061.6428499222,1489428061.6452529430, -1.1624, -0.0122,  0.0413, -3.9673,-18.2190,-13.1226
1489428061.6453289986,1489428061.6477379799, -1.1624, -0.0122,  0.0413, -3.9673,-18.2190,-13.1226
1489428061.6478149891,1489428061.6502230167, -1.1545, -0.0066,  0.0295, -3.9673,-18.2190,-13.1226
1489428061.6503000259,1489428061.6526639462, -1.1545, -0.0066,  0.0295, -3.9673,-18.2190,-13.1226
1489428061.6527419090,1489428061.6550219059, -1.1545, -0.0066,  0.0295, -5.7373,-19.6838,-15.1062
1489428061.6551001072,1489428061.6573779583, -1.1545, -0.0066,  0.0295, -5.7373,-19.6838,-15.1062
1489428061.6574549675,1489428061.6597380638, -1.1545, -0.0066,  0.0295, -5.7373,-19.6838,-15.1062
1489428061.6598150730,1489428061.6622149944, -1.1545, -0.0066,  0.0295, -5.7373,-19.6838,-15.1062
1489428061.6622920036,1489428061.6646990776, -1.1545, -0.0066,  0.0295, -5.7373,-20.7977,-17.4561
1489428061.6647760868,1489428061.6671841145, -1.1545, -0.0066,  0.0295, -7.3700,-20.7977,-17.4561
1489428061.6672608852,1489428061.6696710587, -1.1628, -0.0178,  0.0295, -7.3700,-20.7977,-17.4561
1489428061.6697471142,1489428061.6721630096, -1.1628, -0.0178,  0.0295, -7.3700,-20.7977,-17.4561
1489428061.6722400188,1489428061.6746480465, -1.1628, -0.0178,  0.0295, -7.3700,-20.7977,-19.9585
1489428061.6747241020,1489428061.6771330833, -1.1628, -0.0178,  0.0295, -8.2092,-22.3236,-19.9585
1489428061.6772089005,1489428061.6796169281, -1.1628, -0.0178,  0.0295, -8.2092,-22.3236,-19.9585
1489428061.6796939373,1489428061.6821560860, -1.1628, -0.0178,  0.0295, -8.2092,-22.3236,-19.9585
1489428061.6822319031,1489428061.6846399307, -1.1628, -0.0178,  0.0295, -8.2092,-22.3236,-19.9585
1489428061.6847169399,1489428061.6871199608, -1.1628, -0.0178,  0.0295, -8.7128,-24.1699,-22.4457
1489428061.6871960163,1489428061.6896040440, -1.1628, -0.0015,  0.0225, -8.7128,-24.1699,-22.4457
1489428061.6896829605,1489428061.6921379566, -1.1628, -0.0015,  0.0225, -8.7128,-24.1699,-22.4457
1489428061.6922159195,1489428061.6946210861, -1.1628, -0.0015,  0.0225, -8.7128,-24.1699,-22.4457
1489428061.6946990490,1489428061.6971089840, -1.1628, -0.0015,  0.0225,-10.2692,-25.8331,-25.1617
1489428061.6971890926,1489428061.6995968819, -1.1628, -0.0015,  0.0225,-10.2692,-25.8331,-25.1617
1489428061.6996769905,1489428061.7020850182, -1.1628, -0.0015,  0.0225,-10.2692,-25.8331,-25.1617
1489428061.7021660805,1489428061.7044520378, -1.1628, -0.0015,  0.0225,-10.2692,-25.8331,-25.1617
1489428061.7046360970,1489428061.7069270611, -1.1628, -0.0015,  0.0225,-10.2692,-27.7405,-28.3508
1489428061.7070078850,1489428061.7092878819, -1.1628,  0.0200,  0.0159,-11.6882,-27.7405,-28.3508
1489428061.7093670368,1489428061.7117459774, -1.1851,  0.0200,  0.0159,-11.6882,-27.7405,-28.3508
1489428061.7118239403,1489428061.7142300606, -1.1851,  0.0200,  0.0159,-11.6882,-27.7405,-28.3508
1489428061.7143080235,1489428061.7167150974, -1.1851,  0.0200,  0.0159,-11.6882,-27.7405,-32.2571
1489428061.7167930603,1489428061.7191979885, -1.1851,  0.0200,  0.0159,-13.9160,-30.4413,-34.5306
1489428061.7192759514,1489428061.7217299938, -1.1851,  0.0200,  0.0159,-13.9160,-30.4413,-34.5306
1489428061.7218079567,1489428061.7242178917, -1.1851,  0.0200,  0.0159,-13.9160,-30.4413,-34.5306
1489428061.7242970467,1489428061.7267000675, -1.1851,  0.0200,  0.0159,-13.9160,-30.4413,-34.5306
1489428061.7267789841,1489428061.7291820049, -1.1851,  0.0701,  0.0212,-13.4888,-33.0200,-40.1459
1489428061.7292609215,1489428061.7316720486, -1.2791,  0.0701,  0.0212,-13.4888,-33.0200,-40.1459
1489428061.7317509651,1489428061.7341589928, -1.2791,  0.0701,  0.0212,-13.4888,-33.0200,-40.1459
1489428061.7342379093,1489428061.7366399765, -1.2791,  0.0701,  0.0212,-13.4888,-33.0200,-40.1459
1489428061.7367188931,1489428061.7391259670, -1.2791,  0.0701,  0.0212,-12.2986,-34.7595,-45.5170
1489428061.7392048836,1489428061.7415919304, -1.2791,  0.0701,  0.0212,-12.2986,-34.7595,-45.5170
1489428061.7416710854,1489428061.7439529896, -1.2791,  0.0701,  0.0212,-12.2986,-34.7595,-45.5170
1489428061.7440309525,1489428061.7463140488, -1.2791,  0.0701,  0.0212,-12.2986,-34.7595,-45.5170
1489428061.7463920116,1489428061.7486779690, -1.2791,  0.0701, -0.0337,-12.2986,-34.7595,-51.6815
1489428061.7487559319,1489428061.7510950565, -1.3384,  0.0537, -0.0337,-12.2528,-36.7279,-51.6815
1489428061.7511730194,1489428061.7535800934, -1.3384,  0.0537, -0.0337,-12.2528,-36.7279,-51.6815
1489428061.7536580563,1489428061.7560610771, -1.3384,  0.0537, -0.0337,-12.2528,-36.7279,-51.6815
1489428061.7561390400,1489428061.7585489750, -1.3384,  0.0537, -0.0337,-12.2528,-36.7279,-51.6815
1489428061.7586278915,1489428061.7610421181, -1.3384,  0.0537, -0.0337,-16.0217,-38.5437,-57.4188
1489428061.7611210346,1489428061.7635290623, -1.3384,  0.0537, -0.0337,-16.0217,-38.5437,-57.4188
1489428061.7636079788,1489428061.7660169601, -1.3384,  0.0537, -0.0337,-16.0217,-38.5437,-57.4188
1489428061.7660939693,1489428061.7684929371, -1.3384,  0.0537, -0.0337,-16.0217,-38.5437,-57.4188
1489428061.7685709000,1489428061.7709889412, -1.4314,  0.0432, -0.0476,-21.1639,-41.0614,-64.0106
1489428061.7710680962,1489428061.7734711170, -1.4314,  0.0432, -0.0476,-21.1639,-41.0614,-64.0106
1489428061.7735478878,1489428061.7759540081, -1.4314,  0.0432, -0.0476,-21.1639,-41.0614,-64.0106
1489428061.7760329247,1489428061.7784409523, -1.4314,  0.0432, -0.0476,-21.1639,-41.0614,-64.0106
1489428061.7785189152,1489428061.7809369564, -1.4314,  0.0432, -0.0476,-25.0702,-42.9230,-70.9076
1489428061.7810149193,1489428061.7834320068, -1.4314,  0.0432, -0.0476,-25.1770,-42.9230,-70.9076
1489428061.7835121155,1489428061.7859270573, -1.4314,  0.0432, -0.0476,-25.1770,-42.9230,-70.9076
1489428061.7860059738,1489428061.7884180546, -1.4314,  0.0432, -0.0476,-25.1770,-42.9230,-70.9076
1489428061.7884969711,1489428061.7909491062, -1.6023,  0.0422,  0.0542,-25.1770,-42.9230,-77.1637
1489428061.7910280228,1489428061.7933120728, -1.6023,  0.0422,  0.0542,-26.4893,-45.6543,-77.1637
1489428061.7933900356,1489428061.7956759930, -1.6023,  0.0422,  0.0542,-26.4893,-45.6543,-77.1637
1489428061.7957549095,1489428061.7980389595, -1.6023,  0.0422,  0.0542,-26.4893,-45.6543,-77.1637
1489428061.7981181145,1489428061.8004000187, -1.6023,  0.0422,  0.0542,-26.4893,-45.6543,-77.1637
1489428061.8004789352,1489428061.8027648926, -1.6023,  0.0422,  0.0542,-26.1078,-47.7753,-85.0525
1489428061.8028440475,1489428061.8051218987, -1.6023,  0.0422,  0.0542,-26.1078,-47.7753,-85.0525
1489428061.8052000999,1489428061.8074839115, -1.6023,  0.0422,  0.0542,-26.1078,-47.7753,-85.0525
1489428061.8076739311,1489428061.8099589348, -1.6426, -0.0276, -0.1147,-26.1078,-47.7753,-85.0525
1489428061.8100380898,1489428061.8124248981, -1.6426, -0.0276, -0.1147,-26.1078,-46.0205,-94.0399
1489428061.8125059605,1489428061.8149058819, -1.6426, -0.0276, -0.1147,-23.9258,-46.0205,-94.0399
1489428061.8149859905,1489428061.8173899651, -1.6426, -0.0276, -0.1147,-23.9258,-46.0205,-94.0399
1489428061.8174700737,1489428061.8198781013, -1.6426, -0.0276, -0.1147,-23.9258,-46.0205,-94.0399
1489428061.8199579716,1489428061.8223800659, -1.6426, -0.0276, -0.1147,-23.9258,-46.0205,-101.8524
1489428061.8224589825,1489428061.8248651028, -1.6426, -0.0276, -0.1147,-11.9324,-42.8314,-102.5391
1489428061.8249449730,1489428061.8273479939, -1.6426, -0.0276, -0.1147,-11.9324,-42.8314,-102.5391
1489428061.8274269104,1489428061.8298308849, -1.6362, -0.0291, -0.2104,-11.9324,-42.8314,-102.5391
1489428061.8299100399,1489428061.8323590755, -1.6362, -0.0291, -0.2104,-11.9324,-42.8314,-102.5391
1489428061.8324389458,1489428061.8348429203, -1.6362, -0.0291, -0.2104,  4.6387,-40.2832,-106.8573
1489428061.8349199295,1489428061.8373219967, -1.6362, -0.0291, -0.2104,  4.6387,-40.2832,-106.8573
1489428061.8373990059,1489428061.8398029804, -1.6362, -0.0291, -0.2104,  4.6387,-40.2832,-106.8573
1489428061.8398809433,1489428061.8423359394, -1.6362, -0.0291, -0.2104,  4.6387,-40.2832,-106.8573
1489428061.8424119949,1489428061.8448240757, -1.6362, -0.0291, -0.2104, 18.4021,-40.9851,-107.5592
1489428061.8449029922,1489428061.8473138809, -1.6362, -0.0291, -0.2104, 18.4021,-40.9851,-107.5592
1489428061.8473939896,1489428061.8498001099, -1.3835, -0.1252, -0.1726, 18.4021,-40.9851,-107.5592
1489428061.8498790264,1489428061.8522620201, -1.3835, -0.1252, -0.1726, 18.4021,-40.9851,-107.5592
1489428061.8523399830,1489428061.8546199799, -1.3835, -0.1252, -0.1726, 18.4021,-43.3044,-107.2540
1489428061.8546979427,1489428061.8569829464, -1.3835, -0.1252, -0.1726, 32.2571,-43.3044,-107.2540
1489428061.8570609093,1489428061.8593399525, -1.3835, -0.1252, -0.1726, 32.2571,-43.3044,-107.2540
1489428061.8594179153,1489428061.8617820740, -1.3835, -0.1252, -0.1726, 32.2571,-43.3044,-107.2540
1489428061.8618600368,1489428061.8642609119, -1.3835, -0.1252, -0.1726, 32.2571,-43.3044,-107.2540
1489428061.8643410206,1489428061.8667430878, -1.3835, -0.1252, -0.1726, 34.8969,-42.2821,-104.3091
1489428061.8668220043,1489428061.8692250252, -1.3835,  0.0623, -0.3093, 34.8969,-42.2821,-104.3091
1489428061.8693048954,1489428061.8717479706, -1.1755,  0.0232, -0.3093, 34.8969,-42.2821,-104.3091
1489428061.8718280792,1489428061.8742339611, -1.1755,  0.0232, -0.3093, 34.8969,-42.2821,-104.3091
1489428061.8743140697,1489428061.8767199516, -1.1755,  0.0232, -0.3093, 22.4762,-36.7279,-93.8263
1489428061.8767991066,1489428061.8792130947, -1.1755,  0.0232, -0.3093, 22.4762,-36.7279,-93.8263
1489428061.8792910576,1489428061.8817429543, -1.1755,  0.0232, -0.3093, 22.4762,-36.7279,-93.8263
1489428061.8818230629,1489428061.8842260838, -1.1755,  0.0232, -0.3093, 22.4762,-36.7279,-93.8263
1489428061.8843050003,1489428061.8867070675, -1.1755,  0.0232, -0.3093,  6.2103,-26.9928,-86.3953
1489428061.8867840767,1489428061.8891899586, -1.1755,  0.0232, -0.0979,  6.2103,-26.9928,-86.3953
1489428061.8892669678,1489428061.8916730881, -1.0229,  0.0208, -0.0979,  6.2103,-26.9928,-86.3953
1489428061.8917500973,1489428061.8941519260, -1.0229,  0.0208, -0.0979,  6.2103,-26.9928,-86.3953
1489428061.8942289352,1489428061.8966369629, -1.0229,  0.0208, -0.0979,  6.2103,-26.9928,-73.7762
1489428061.8967139721,1489428061.8991210461, -1.0229,  0.0208, -0.0979, 20.1416,-21.4233,-73.7762
1489428061.8992009163,1489428061.9015939236, -1.0229,  0.0208, -0.0979, 20.1416,-21.4233,-73.7762
1489428061.9016740322,1489428061.9039590359, -1.0229,  0.0208, -0.0979, 20.1416,-21.4233,-73.7762
1489428061.9040369987,1489428061.9063789845, -1.0229,  0.0208, -0.0979, 20.1416,-21.4233,-73.7762
1489428061.9064579010,1489428061.9087400436, -1.0229,  0.0208, -0.1604, 19.1498,-10.5896,-55.5267
1489428061.9089291096,1489428061.9112410545, -1.0002,  0.4307, -0.1689, 19.1498,-10.5896,-55.5267
1489428061.9113199711,1489428061.9137020111, -1.0002,  0.4307, -0.1689, 19.1498,-10.5896,-55.5267
1489428061.9137799740,1489428061.9162449837, -1.0002,  0.4307, -0.1689, 19.1498,-10.5896,-55.5267
1489428061.9163239002,1489428061.9187180996, -1.0002,  0.4307, -0.1689,  9.2468,  2.7161,-35.8276
1489428061.9187920094,1489428061.9211928844, -1.0002,  0.4307, -0.1689,  9.2468,  2.7161,-35.8276
1489428061.9212679863,1489428061.9236369133, -1.0002,  0.4307, -0.1689,  9.2468,  2.7161,-35.8276
1489428061.9237110615,1489428061.9261291027, -1.0002,  0.4307, -0.1689,  9.2468,  2.7161,-35.8276
1489428061.9262039661,1489428061.9286100864, -1.0002,  0.4307, -0.1689,  9.2468, 14.4348,-21.5607
1489428061.9286870956,1489428061.9311490059, -0.8420,  0.4189, -0.0671, -5.0659, 15.1215,-21.5607
1489428061.9312260151,1489428061.9336340427, -0.8420,  0.4189, -0.0671, -5.0659, 15.1215,-21.5607
1489428061.9337110519,1489428061.9361219406, -0.8420,  0.4189, -0.0671, -5.0659, 15.1215,-21.5607
1489428061.9361999035,1489428061.9386100769, -0.8420,  0.4189, -0.0671, -5.0659, 15.1215, -5.9357
1489428061.9386839867,1489428061.9411420822, -0.8420,  0.4189, -0.0671,-22.3999, 29.9225, -6.8817
1489428061.9412190914,1489428061.9436221123, -0.8420,  0.4189, -0.0671,-22.3999, 29.9225, -6.8817
1489428061.9436988831,1489428061.9461019039, -0.8420,  0.4189, -0.0671,-22.3999, 29.9225, -6.8817
1489428061.9461801052,1489428061.9485819340, -0.8420,  0.4189, -0.0671,-22.3999, 29.9225, -6.8817
1489428061.9486598969,1489428061.9510591030, -0.7759,  0.7937, -0.0605,-36.9873, 41.9464, 10.6354
1489428061.9511389732,1489428061.9534249306, -0.7759,  0.7937, -0.0605,-36.9873, 41.9464, 10.6354
1489428061.9535040855,1489428061.9557850361, -0.7759,  0.7937, -0.0605,-36.9873, 41.9464, 10.6354
1489428061.9558639526,1489428061.9581460953, -0.7759,  0.7937, -0.0605,-36.9873, 41.9464, 10.6354
1489428061.9582250118,1489428061.9605069160, -0.7759,  0.7937, -0.0605,-48.7061, 50.9491, 27.4353
1489428061.9605860710,1489428061.9629869461, -0.7759,  0.7937, -0.0605,-48.1873, 50.9491, 27.4353
1489428061.9630670547,1489428061.9654750824, -0.7759,  0.7937, -0.0605,-48.1873, 50.9491, 27.4353
1489428061.9655539989,1489428061.9679598808, -0.7759,  0.7937, -0.0605,-48.1873, 50.9491, 27.4353
1489428061.9680380821,1489428061.9704439640, -0.8179,  0.7515,  0.0327,-48.1873, 50.9491, 42.7399
1489428061.9705231190,1489428061.9729399681, -0.8179,  0.7515,  0.0327,-59.4330, 57.6782, 42.7399
1489428061.9730200768,1489428061.9754250050, -0.8179,  0.7515,  0.0327,-59.4330, 57.6782, 42.7399
1489428061.9755039215,1489428061.9779129028, -0.8179,  0.7515,  0.0327,-59.4330, 57.6782, 42.7399
1489428061.9779911041,1489428061.9804000854, -0.8179,  0.7515,  0.0327,-59.4330, 57.6782, 42.7399
1489428061.9804790020,1489428061.9829339981, -0.8179,  0.7515,  0.0327,-64.4989, 61.4777, 59.0363
1489428061.9830150604,1489428061.9854230881, -0.8179,  0.7515,  0.0327,-64.4989, 61.4777, 59.0363
1489428061.9855020046,1489428061.9879078865, -0.8179,  0.7515,  0.0327,-64.4989, 61.4777, 59.0363
1489428061.9879870415,1489428061.9903941154, -0.9165,  0.6470,  0.1487,-64.4989, 61.4777, 59.0363
1489428061.9904739857,1489428061.9928860664, -0.9165,  0.6470,  0.1487,-61.0809, 63.2172, 75.2106
1489428061.9929649830,1489428061.9953670502, -0.9165,  0.6470,  0.1487,-61.0809, 63.2172, 75.2106
1489428061.9954469204,1489428061.9978559017, -0.9165,  0.6470,  0.1487,-61.0809, 63.2172, 75.2106
1489428061.9979341030,1489428062.0003418922, -0.9165,  0.6470,  0.1487,-61.0809, 63.2172, 75.2106
1489428062.0004220009,1489428062.0027489662, -0.9165,  0.6470,  0.1487,-53.2684, 61.0199, 91.1407
1489428062.0028278828,1489428062.0051059723, -0.9165,  0.6470,  0.1487,-52.1088, 61.0199, 91.1407
1489428062.0051839352,1489428062.0074710846, -0.9165,  0.6470,  0.1487,-52.1088, 61.0199, 91.1407
1489428062.0075500011,1489428062.0098319054, -1.0017,  0.5491,  0.2185,-52.1088, 61.0199, 91.1407
1489428062.0099110603,1489428062.0122730732, -1.0017,  0.5491,  0.2185,-52.1088, 61.0199, 91.1407
1489428062.0124609470,1489428062.0148708820, -1.0017,  0.5491,  0.2185,-40.0848, 57.0221,104.2633
1489428062.0149490833,1489428062.0173509121, -1.0017,  0.5491,  0.2185,-40.0848, 57.0221,104.2633
1489428062.0174291134,1489428062.0198950768, -1.0017,  0.5491,  0.2185,-40.0848, 57.0221,104.2633
1489428062.0199749470,1489428062.0224840641, -1.0017,  0.5491,  0.2185,-40.0848, 57.0221,104.2633
1489428062.0225620270,1489428062.0249269009, -1.0017,  0.5491,  0.2185,-25.2075, 52.7802,117.2028
1489428062.0250070095,1489428062.0274779797, -1.0017,  0.5491,  0.2185,-25.2075, 52.7802,117.2028
1489428062.0275568962,1489428062.0299179554, -1.0017,  0.5332,  0.2727,-25.2075, 52.7802,117.2028
1489428062.0299971104,1489428062.0332119465, -1.0508,  0.5332,  0.2727,-25.2075, 52.7802,117.2028
1489428062.0332949162,1489428062.0355749130, -1.0508,  0.5332,  0.2727,-11.8713, 48.5382,129.4708
1489428062.0356531143,1489428062.0379300117, -1.0508,  0.5332,  0.2727,-11.8713, 48.5382,129.4708
1489428062.0380070210,1489428062.0402879715, -1.0508,  0.5332,  0.2727,-11.8713, 48.5382,129.4708
1489428062.0403680801,1489428062.0426940918, -1.0508,  0.5332,  0.2727,-11.8713, 48.5382,129.4708
1489428062.0427711010,1489428062.0450489521, -1.0508,  0.5332,  0.2727, -0.1526, 44.2810,139.5264
1489428062.0451259613,1489428062.0474019051, -1.0508,  0.5332,  0.2727, -0.4730, 44.2810,139.5264
1489428062.0474779606,1489428062.0497560501, -1.1133,  0.5176,  0.2251, -0.4730, 44.2810,139.5264
1489428062.0498330593,1489428062.0521430969, -1.0793,  0.5176,  0.2251, -0.4730, 44.2810,139.5264
1489428062.0522201061,1489428062.0544970036, -1.0793,  0.5176,  0.2251, -0.4730, 44.2810,139.5264
1489428062.0545740128,1489428062.0568530560, -1.0793,  0.5176,  0.2251, 10.8795, 41.6565,148.2239
1489428062.0569329262,1489428062.0592079163, -1.0793,  0.5176,  0.2251, 10.8795, 41.6565,148.2239
1489428062.0592870712,1489428062.0616469383, -1.0793,  0.5176,  0.2251, 10.8795, 41.6565,148.2239
1489428062.0617249012,1489428062.0640010834, -1.0793,  0.5176,  0.2251, 10.8795, 41.6565,148.2239
1489428062.0640790462,1489428062.0663559437, -1.0793,  0.5176,  0.2251, 18.7531, 40.1611,156.4941
1489428062.0664360523,1489428062.0687119961, -1.0793,  0.5176,  0.2251, 18.7531, 40.1611,156.4941
1489428062.0687930584,1489428062.0710749626, -1.2241,  0.3997,  0.1790, 18.7531, 40.1611,156.4941
1489428062.0711529255,1489428062.0734279156, -1.2241,  0.3997,  0.1790, 18.7531, 40.1611,156.4941
1489428062.0735061169,1489428062.0757820606, -1.2241,  0.3997,  0.1790, 18.7531, 40.1611,156.4941
1489428062.0758609772,1489428062.0781469345, -1.2241,  0.3997,  0.1790, 24.1241, 42.1448,162.6282
1489428062.0782248974,1489428062.0804998875, -1.2241,  0.3997,  0.1790, 24.1241, 42.1448,162.6282
1489428062.0805780888,1489428062.0829899311, -1.2241,  0.3997,  0.1790, 24.1241, 42.1448,162.6282
1489428062.0830690861,1489428062.0853428841, -1.2241,  0.3997,  0.1790, 24.1241, 42.1448,162.6282
1489428062.0854220390,1489428062.0876979828, -1.2241,  0.3997,  0.1790, 30.4108, 45.7306,167.0990
1489428062.0877768993,1489428062.0900530815, -1.3713,  0.2329,  0.1108, 30.4108, 45.7306,167.0990
1489428062.0901339054,1489428062.0925810337, -1.3713,  0.2329,  0.1108, 30.4108, 45.7306,167.0990
1489428062.0926609039,1489428062.0949430466, -1.3713,  0.2329,  0.1108, 30.4108, 45.7306,167.0990
1489428062.0950229168,1489428062.0973010063, -1.3713,  0.2329,  0.1108, 30.4108, 45.7306,170.8527
1489428062.0973811150,1489428062.0996549129, -1.3713,  0.2329,  0.1108, 32.5928, 50.5829,170.8527
1489428062.0997350216,1489428062.1020140648, -1.3713,  0.2329,  0.1108, 32.5928, 50.5829,170.8527
1489428062.1020929813,1489428062.1043729782, -1.3713,  0.2329,  0.1108, 32.5928, 50.5829,170.8527
1489428062.1044518948,1489428062.1067299843, -1.3713,  0.2329,  0.1108, 32.5928, 50.5829,170.8527
1489428062.1068089008,1489428062.1090888977, -1.3713,  0.2329,  0.1069, 32.7148, 54.9622,174.9573
1489428062.1091690063,1489428062.1114499569, -1.4370,  0.0947,  0.1069, 32.7148, 54.9622,174.9573
1489428062.1115300655,1489428062.1138069630, -1.4370,  0.0947,  0.1069, 32.7148, 54.9622,174.9573
1489428062.1140089035,1489428062.1162939072, -1.4370,  0.0947,  0.1069, 32.7148, 54.9622,174.9573
1489428062.1163759232,1489428062.1188189983, -1.4370,  0.0947,  0.1069, 32.7148, 54.9622,176.3458
1489428062.1189000607,1489428062.1213650703, -1.4370,  0.0947,  0.1069, 32.9437, 58.4564,176.3458
1489428062.1214449406,1489428062.1237299442, -1.4370,  0.0947,  0.1069, 32.9437, 58.4564,176.3458
1489428062.1238079071,1489428062.1260879040, -1.4370,  0.0947,  0.1069, 32.9437, 58.4564,176.3458
1489428062.1261670589,1489428062.1286079884, -1.4370,  0.0947,  0.1069, 32.9437, 58.4564,176.3458
1489428062.1286900043,1489428062.1309950352, -1.4485, -0.0630,  0.0776, 34.9426, 61.7676,174.7437
1489428062.1310760975,1489428062.1334860325, -1.4485, -0.0630,  0.0776, 34.9426, 61.7676,174.7437
1489428062.1335659027,1489428062.1359660625, -1.4485, -0.0630,  0.0776, 34.9426, 61.7676,174.7437
1489428062.1360449791,1489428062.1384429932, -1.4485, -0.0630,  0.0776, 34.9426, 61.7676,174.7437
1489428062.1385219097,1489428062.1409449577, -1.4485, -0.0630,  0.0776, 28.7933, 63.8580,171.7834
1489428062.1410250664,1489428062.1434268951, -1.4485, -0.0630,  0.0776, 28.7933, 63.8580,171.7834
1489428062.1435060501,1489428062.1459069252, -1.4485, -0.0630,  0.0776, 28.7933, 63.8580,171.7834
1489428062.1459848881,1489428062.1483879089, -1.4485, -0.0630,  0.0776, 28.7933, 63.8580,171.7834
1489428062.1484670639,1489428062.1508719921, -1.5249, -0.2043,  0.0554, 17.0746, 65.5518,169.5862
1489428062.1510019302,1489428062.1532909870, -1.5249, -0.2043,  0.0554, 19.2413, 65.5518,169.5862
1489428062.1533710957,1489428062.1556520462, -1.5249, -0.2043,  0.0554, 19.2413, 65.5518,169.5862
1489428062.1557319164,1489428062.1580131054, -1.5249, -0.2043,  0.0554, 19.2413, 65.5518,169.5862
1489428062.1580929756,1489428062.1603760719, -1.5249, -0.2043,  0.0554, 19.2413, 65.5518,169.5862
1489428062.1604559422,1489428062.1627650261, -1.5249, -0.2043,  0.0554,  9.7046, 64.2700,166.7023
1489428062.1628429890,1489428062.1651339531, -1.5249, -0.2043,  0.0554,  9.7046, 64.2700,166.7023
1489428062.1652119160,1489428062.1674990654, -1.5249, -0.2043,  0.0554,  9.7046, 64.2700,166.7023
1489428062.1675770283,1489428062.1698660851, -1.5874, -0.2334,  0.1133,  9.7046, 64.2700,166.7023
1489428062.1699440479,1489428062.1724090576, -1.6008, -0.2334,  0.1133, -1.9531, 60.7758,164.9323
1489428062.1724860668,1489428062.1747720242, -1.6008, -0.2334,  0.1133, -1.9531, 60.7758,164.9323
1489428062.1748490334,1489428062.1771299839, -1.6008, -0.2334,  0.1133, -1.9531, 60.7758,164.9323
1489428062.1772069931,1489428062.1794970036, -1.6008, -0.2334,  0.1133, -1.9531, 60.7758,164.9323
1489428062.1795749664,1489428062.1820650101, -1.6008, -0.2334,  0.1133, -1.9531, 60.7758,160.3851
1489428062.1821439266,1489428062.1845529079, -1.6008, -0.2334,  0.1133,-11.6425, 57.1136,160.3851
1489428062.1846320629,1489428062.1870460510, -1.6008, -0.2334,  0.1133,-11.6425, 57.1136,160.3851
1489428062.1871249676,1489428062.1895349026, -1.6008, -0.1709,  0.1760,-11.6425, 57.1136,160.3851
1489428062.1896140575,1489428062.1920409203, -1.4453, -0.1606,  0.1760,-11.6425, 57.1136,160.3851
1489428062.1921200752,1489428062.1945269108, -1.4453, -0.1606,  0.1760,-22.9034, 55.1605,155.5939
1489428062.1946070194,1489428062.1970140934, -1.4453, -0.1606,  0.1760,-22.9034, 55.1605,155.5939
1489428062.1970920563,1489428062.1995019913, -1.4453, -0.1606,  0.1760,-22.9034, 55.1605,155.5939
1489428062.1995809078,1489428062.2019519806, -1.4453, -0.1606,  0.1760,-22.9034, 55.1605,155.5939
1489428062.2020308971,1489428062.2043170929, -1.4453, -0.1606,  0.1760,-35.0800, 53.4668,150.6348
1489428062.2043960094,1489428062.2066779137, -1.4453, -0.1606,  0.1760,-35.0800, 53.4668,150.6348
1489428062.2067570686,1489428062.2090349197, -1.4453, -0.1606,  0.1760,-35.0800, 53.4668,150.6348
1489428062.2091150284,1489428062.2114539146, -1.3672, -0.1262,  0.1560,-35.0800, 53.4668,150.6348
1489428062.2115340233,1489428062.2139389515, -1.3672, -0.1262,  0.1560,-35.0800, 49.5605,144.7754
1489428062.2140181065,1489428062.2164249420, -1.3672, -0.1262,  0.1560,-42.7399, 50.3998,144.7754
1489428062.2166149616,1489428062.2190239429, -1.3672, -0.1262,  0.1560,-42.7399, 50.3998,144.7754
1489428062.2191030979,1489428062.2215530872, -1.3672, -0.1262,  0.1560,-42.7399, 50.3998,144.7754
1489428062.2216320038,1489428062.2240378857, -1.3672, -0.1262,  0.1560,-42.7399, 50.3998,136.9629
1489428062.2241179943,1489428062.2265319824, -1.3672, -0.1262,  0.1560,-48.8281, 46.1426,138.1073
1489428062.2266108990,1489428062.2290160656, -1.3672, -0.1262,  0.0935,-48.8281, 46.1426,138.1073
1489428062.2290949821,1489428062.2315518856, -1.3188, -0.1853,  0.1218,-48.8281, 46.1426,138.1073
1489428062.2316310406,1489428062.2340309620, -1.3188, -0.1853,  0.1218,-48.8281, 46.1426,138.1073
1489428062.2341101170,1489428062.2365128994, -1.3188, -0.1853,  0.1218,-50.0946, 42.6788,130.4474
1489428062.2365930080,1489428062.2391359806, -1.3188, -0.1853,  0.1218,-50.0946, 42.6788,130.4474
1489428062.2392170429,1489428062.2416338921, -1.3188, -0.1853,  0.1218,-50.0946, 42.6788,130.4474
1489428062.2417130470,1489428062.2441139221, -1.3188, -0.1853,  0.1218,-50.0946, 42.6788,130.4474
1489428062.2441918850,1489428062.2465929985, -1.3188, -0.1853,  0.1218,-47.3938, 39.0320,121.1090
1489428062.2466731071,1489428062.2490720749, -1.3188, -0.1853,  0.1218,-47.3938, 39.0320,121.1090
1489428062.2491519451,1489428062.2515349388, -1.3022, -0.3081,  0.0754,-47.3938, 39.0320,121.1090
1489428062.2516160011,1489428062.2538919449, -1.3022, -0.3081,  0.0754,-47.3938, 39.0320,121.1090
1489428062.2539710999,1489428062.2562580109, -1.3022, -0.3081,  0.0754,-47.3938, 35.4767,108.7952
1489428062.2563378811,1489428062.2586181164, -1.3022, -0.3081,  0.0754,-49.5911, 35.4767,108.7952
1489428062.2586979866,1489428062.2609899044, -1.3022, -0.3081,  0.0754,-49.5911, 35.4767,108.7952
1489428062.2610690594,1489428062.2634739876, -1.3022, -0.3081,  0.0754,-49.5911, 35.4767,108.7952
1489428062.2635540962,1489428062.2659580708, -1.3022, -0.3081,  0.0754,-49.5911, 35.4767,108.7952
1489428062.2660369873,1489428062.2684431076, -1.3022, -0.3081,  0.0754,-56.6864, 31.5857, 95.2301
1489428062.2685229778,1489428062.2709360123, -1.2620, -0.4868,  0.0505,-56.6864, 31.5857, 95.2301
1489428062.2710158825,1489428062.2732970715, -1.2620, -0.4868,  0.0505,-56.6864, 31.5857, 95.2301
1489428062.2733769417,1489428062.2756528854, -1.2620, -0.4868,  0.0505,-56.6864, 31.5857, 95.2301
1489428062.2757320404,1489428062.2780170441, -1.2620, -0.4868,  0.0505,-61.5692, 28.7323, 78.1860
1489428062.2780959606,1489428062.2803709507, -1.2620, -0.4868,  0.0505,-61.5692, 28.7323, 78.1860
1489428062.2804489136,1489428062.2828218937, -1.2620, -0.4868,  0.0505,-61.5692, 28.7323, 78.1860
1489428062.2829020023,1489428062.2851839066, -1.2620, -0.4868,  0.0505,-61.5692, 28.7323, 78.1860
1489428062.2852640152,1489428062.2875430584, -1.2620, -0.4868,  0.0505,-61.5692, 28.7323, 55.8319
1489428062.2876210213,1489428062.2899000645, -1.1995, -0.8296,  0.0940,-57.4799, 25.7416, 55.8319
1489428062.2899789810,1489428062.2924730778, -1.1887, -0.8296,  0.0940,-57.4799, 25.7416, 55.8319
1489428062.2925529480,1489428062.2949581146, -1.1887, -0.8296,  0.0940,-57.4799, 25.7416, 55.8319
1489428062.2950370312,1489428062.2974390984, -1.1887, -0.8296,  0.0940,-57.4799, 25.7416, 55.8319
1489428062.2975180149,1489428062.2999179363, -1.1887, -0.8296,  0.0940,-44.2657, 19.9432, 27.9083
1489428062.2999980450,1489428062.3023409843, -1.1887, -0.8296,  0.0940,-44.2657, 19.9432, 27.9083
1489428062.3024199009,1489428062.3047060966, -1.1887, -0.8296,  0.0940,-44.2657, 19.9432, 27.9083
1489428062.3047850132,1489428062.3070659637, -1.1887, -0.8296,  0.0940,-44.2657, 19.9432, 27.9083
1489428062.3071451187,1489428062.3094251156, -1.1887, -0.8296,  0.1392,-30.9906, 13.1226, -2.0294
1489428062.3095009327,1489428062.3117859364, -1.1821, -0.6924,  0.1392,-30.9906, 13.1226, -2.0294
1489428062.3118629456,1489428062.3141400814, -1.1821, -0.6924,  0.1392,-30.9906, 13.1226, -2.0294
1489428062.3142170906,1489428062.3164939880, -1.1821, -0.6924,  0.1392,-30.9906, 13.1226, -2.0294
1489428062.3166770935,1489428062.3189520836, -1.1821, -0.6924,  0.1392,-30.9906, 13.1226, -2.0294
1489428062.3190290928,1489428062.3214020729, -1.1821, -0.6924,  0.1392,-25.3143,  6.1646,-28.0762
1489428062.3214790821,1489428062.3238780499, -1.1821, -0.6924,  0.1392,-25.3143,  6.1646,-28.0762
1489428062.3239560127,1489428062.3263559341, -1.1821, -0.6924,  0.1392,-25.3143,  6.1646,-28.0762
1489428062.3264319897,1489428062.3288340569, -1.1821, -0.6924,  0.1392,-25.3143,  6.1646,-28.0762
1489428062.3289101124,1489428062.3313589096, -1.1616, -0.4202,  0.0525,-27.9388,  0.9308,-48.4467
1489428062.3314380646,1489428062.3338370323, -1.1616, -0.4202,  0.0525,-27.9388,  0.9308,-48.4467
1489428062.3339149952,1489428062.3363189697, -1.1616, -0.4202,  0.0525,-27.9388,  0.9308,-48.4467
1489428062.3363959789,1489428062.3387970924, -1.1616, -0.4202,  0.0525,-27.9388,  0.9308,-48.4467
1489428062.3388750553,1489428062.3412768841, -1.1616, -0.4202,  0.0525,-30.8990, -3.2654,-62.4542
1489428062.3413538933,1489428062.3437559605, -1.1616, -0.4202,  0.0525,-30.8990, -3.2654,-62.4542
1489428062.3438329697,1489428062.3462350368, -1.1616, -0.4202,  0.0525,-30.8990, -3.2654,-62.4542
1489428062.3463120461,1489428062.3487110138, -1.1616, -0.4202,  0.0525,-30.8990, -3.2654,-62.4542
1489428062.3487880230,1489428062.3511900902, -1.0803, -0.2932, -0.0503,-30.8990, -3.2654,-75.5157
1489428062.3512670994,1489428062.3535408974, -1.0803, -0.2932, -0.0503,-33.4930, -5.9052,-75.5157
1489428062.3536179066,1489428062.3559010029, -1.0803, -0.2932, -0.0503,-33.4930, -5.9052,-75.5157
1489428062.3559780121,1489428062.3582580090, -1.0803, -0.2932, -0.0503,-33.4930, -5.9052,-75.5157
1489428062.3583340645,1489428062.3606109619, -1.0803, -0.2932, -0.0503,-33.4930, -5.9052,-75.5157
1489428062.3606870174,1489428062.3631300926, -1.0803, -0.2932, -0.0503,-29.4189, -8.9417,-84.7473
1489428062.3632071018,1489428062.3656089306, -1.0803, -0.2932, -0.0503,-29.4189, -8.9417,-84.7473
1489428062.3656859398,1489428062.3680889606, -1.0803, -0.2932, -0.0503,-29.4189, -8.9417,-84.7473
1489428062.3681669235,1489428062.3705689907, -1.1204,  0.6501, -0.2190,-29.4189, -8.9417,-84.7473
1489428062.3706469536,1489428062.3730549812, -1.1204,  0.6501, -0.2190,-10.7117, -9.0332,-82.1533
1489428062.3731329441,1489428062.3755400181, -1.1204,  0.6501, -0.2190,-10.7117, -9.0332,-82.1533
1489428062.3756179810,1489428062.3780210018, -1.1204,  0.6501, -0.2190,-10.7117, -9.0332,-82.1533
1489428062.3780989647,1489428062.3805050850, -1.1204,  0.6501, -0.2190,-10.7117, -9.0332,-82.1533
1489428062.3805820942,1489428062.3830010891, -1.1204,  0.6501, -0.2190,-10.7117, -9.0332,-69.5190
1489428062.3830790520,1489428062.3854858875, -1.1204,  0.6501, -0.2190,  5.7068, -9.9640,-69.5190
1489428062.3855619431,1489428062.3879690170, -1.1204,  0.6501, -0.2190,  5.7068, -9.9640,-69.5190
1489428062.3880441189,1489428062.3904469013, -0.9316,  2.5078, -0.1482,  5.7068, -9.9640,-69.5190
1489428062.3905220032,1489428062.3929309845, -0.9316,  2.5078, -0.1482,  5.7068, -9.9640,-69.5190
1489428062.3930060863,1489428062.3954069614, -0.9316,  2.5078, -0.1482, 13.0005, -6.8665,-49.6521
1489428062.3954839706,1489428062.3978879452, -0.9316,  2.5078, -0.1482, 13.0005, -6.8665,-49.6521
1489428062.3979649544,1489428062.4003720284, -0.9316,  2.5078, -0.1482, 13.0005, -6.8665,-49.6521
1489428062.4004490376,1489428062.4027590752, -0.9316,  2.5078, -0.1482, 13.0005, -6.8665,-49.6521
1489428062.4028370380,1489428062.4051198959, -0.9316,  2.5078, -0.1482,-10.4675, -8.7738,-44.6320
1489428062.4051959515,1489428062.4074749947, -0.9316,  2.5078, -0.1482,-10.4675, -8.7738,-44.6320
1489428062.4075510502,1489428062.4098329544, -0.9316, -0.0613,  0.5020,-10.4675, -8.7738,-44.6320
1489428062.4099109173,1489428062.4122719765, -1.8113, -0.0613,  0.5020,-10.4675, -8.7738,-44.6320
1489428062.4123499393,1489428062.4147610664, -1.8113, -0.0613,  0.5020,-10.4675,-16.5863,-76.2634
1489428062.4148399830,1489428062.4172480106, -1.8113, -0.0613,  0.5020,-55.6793,-18.8599,-76.2634
1489428062.4173278809,1489428062.4197371006, -1.8113, -0.0613,  0.5020,-55.6793,-18.8599,-76.2634
1489428062.4199249744,1489428062.4223508835, -1.8113, -0.0613,  0.5020,-55.6793,-18.8599,-76.2634
1489428062.4224300385,1489428062.4248340130, -1.8113, -0.0613,  0.5020,-55.6793,-18.8599,-103.6072
1489428062.4249138832,1489428062.4273209572, -1.8113, -0.0613,  0.5020,-64.3616, -9.7198,-105.2856
1489428062.4274001122,1489428062.4298090935, -1.8113, -0.4363, -0.0815,-64.3616, -9.7198,-105.2856
1489428062.4298861027,1489428062.4323370457, -1.6584, -0.3923, -0.0815,-64.3616, -9.7198,-105.2856
1489428062.4324140549,1489428062.4348180294, -1.6584, -0.3923, -0.0815,-64.3616, -9.7198,-105.2856
1489428062.4348959923,1489428062.4373030663, -1.6584, -0.3923, -0.0815,-43.4265, -3.6621,-115.4327
1489428062.4373788834,1489428062.4397869110, -1.6584, -0.3923, -0.0815,-43.4265, -3.6621,-115.4327
1489428062.4398629665,1489428062.4422779083, -1.6584, -0.3923, -0.0815,-43.4265, -3.6621,-115.4327
1489428062.4423539639,1489428062.4447610378, -1.6584, -0.3923, -0.0815,-43.4265, -3.6621,-115.4327
1489428062.4448370934,1489428062.4472439289, -1.6584, -0.3923, -0.0815,-24.0326, -2.3193,-116.6382
1489428062.4473209381,1489428062.4497280121, -1.6584,  0.1077, -0.0688,-24.0326, -2.3193,-116.6382
1489428062.4498059750,1489428062.4521589279, -1.3745,  0.0830, -0.0688,-24.0326, -2.3193,-116.6382
1489428062.4522349834,1489428062.4545159340, -1.3745,  0.0830, -0.0688,-24.0326, -2.3193,-116.6382
1489428062.4545929432,1489428062.4568760395, -1.3745,  0.0830, -0.0688,-24.0326, -2.3193,-120.7428
1489428062.4569520950,1489428062.4592380524, -1.3745,  0.0830, -0.0688,-29.7394,  0.0458,-120.7428
1489428062.4593160152,1489428062.4617118835, -1.3745,  0.0830, -0.0688,-29.7394,  0.0458,-120.7428
1489428062.4617900848,1489428062.4641969204, -1.3745,  0.0830, -0.0688,-29.7394,  0.0458,-120.7428
1489428062.4642739296,1489428062.4666769505, -1.3745,  0.0830, -0.0688,-29.7394,  0.0458,-120.7428
1489428062.4667539597,1489428062.4691629410, -1.3745,  0.0830, -0.0688,-33.7372,  2.9602,-123.5504
1489428062.4692399502,1489428062.4716510773, -1.1965,  0.0156,  0.0332,-33.7372,  2.9602,-123.5504
1489428062.4717290401,1489428062.4741339684, -1.1965,  0.0156,  0.0332,-33.7372,  2.9602,-123.5504
1489428062.4742109776,1489428062.4766159058, -1.1965,  0.0156,  0.0332,-33.7372,  2.9602,-123.5504
1489428062.4766929150,1489428062.4790949821, -1.1965,  0.0156,  0.0332,-31.7688,  6.4545,-123.1995
1489428062.4791710377,1489428062.4815890789, -1.1965,  0.0156,  0.0332,-31.7688,  6.4545,-123.1995
1489428062.4816660881,1489428062.4840741158, -1.1965,  0.0156,  0.0332,-31.7688,  6.4545,-123.1995
1489428062.4841508865,1489428062.4865589142, -1.1965,  0.0156,  0.0332,-31.7688,  6.4545,-123.1995
1489428062.4866340160,1489428062.4890398979, -1.1965,  0.0156,  0.0332,-27.8625,  7.2174,-119.2627
1489428062.4891159534,1489428062.4915320873, -1.0588, -0.0776, -0.0801,-28.6407,  7.2174,-119.2627
1489428062.4916090965,1489428062.4940159321, -1.0588, -0.0776, -0.0801,-28.6407,  7.2174,-119.2627
1489428062.4940938950,1489428062.4964940548, -1.0588, -0.0776, -0.0801,-28.6407,  7.2174,-119.2627
1489428062.4965720177,1489428062.4989678860, -1.0588, -0.0776, -0.0801,-28.6407,  7.2174,-109.8480
1489428062.4990460873,1489428062.5014290810, -1.0588, -0.0776, -0.0801, -9.5367,  5.6915,-109.8480
1489428062.5015029907,1489428062.5037879944, -1.0588, -0.0776, -0.0801, -9.5367,  5.6915,-109.8480
1489428062.5038619041,1489428062.5061450005, -1.0588, -0.0776, -0.0801, -9.5367,  5.6915,-109.8480
1489428062.5062189102,1489428062.5085000992, -1.0588, -0.0776, -0.0801, -9.5367,  5.6915,-109.8480
1489428062.5085740089,1489428062.5108520985, -1.1211,  0.0454, -0.1785, -4.0283,  4.4708,-97.5342
1489428062.5109961033,1489428062.5134038925, -1.1211,  0.0454, -0.1785, -4.0283,  4.4708,-97.5342
1489428062.5134789944,1489428062.5158789158, -1.1211,  0.0454, -0.1785, -4.0283,  4.4708,-97.5342
1489428062.5159530640,1489428062.5183529854, -1.1211,  0.0454, -0.1785, -4.0283,  4.4708,-97.5342
1489428062.5184268951,1489428062.5208280087, -1.1211,  0.0454, -0.1785, -7.9346,  3.5400,-90.9271
1489428062.5209510326,1489428062.5233509541, -1.1211,  0.0454, -0.1785, -8.6365,  3.5400,-90.9271
1489428062.5235309601,1489428062.5259399414, -1.1211,  0.0454, -0.1785, -8.6365,  3.5400,-90.9271
1489428062.5260150433,1489428062.5284149647, -1.1211,  0.0454, -0.1785, -8.6365,  3.5400,-90.9271
1489428062.5284900665,1489428062.5309369564, -1.1790,  0.0188, -0.0791, -8.6365,  3.5400,-85.2509
1489428062.5310130119,1489428062.5334210396, -1.1790,  0.0188, -0.0791,  0.3510, -0.1831,-85.2509
1489428062.5334990025,1489428062.5359039307, -1.1790,  0.0188, -0.0791,  0.3510, -0.1831,-85.2509
1489428062.5359799862,1489428062.5383849144, -1.1790,  0.0188, -0.0791,  0.3510, -0.1831,-85.2509
1489428062.5384609699,1489428062.5408630371, -1.1790,  0.0188, -0.0791,  0.3510, -0.1831,-85.2509
1489428062.5409889221,1489428062.5432798862, -1.1790,  0.0188, -0.0791,  3.7231, -2.8076,-81.0852
1489428062.5433549881,1489428062.5456340313, -1.1790,  0.0188, -0.0791,  3.7231, -2.8076,-81.0852
1489428062.5457069874,1489428062.5479900837, -1.1790,  0.0188, -0.0791,  3.7231, -2.8076,-81.0852
1489428062.5480630398,1489428062.5503458977, -1.1426,  0.0564, -0.0647,  3.7231, -2.8076,-81.0852
1489428062.5504200459,1489428062.5528171062, -1.1426,  0.0564, -0.0647,  2.2125, -1.8463,-77.1179
1489428062.5528910160,1489428062.5552930832, -1.1426,  0.0564, -0.0647,  2.2125, -1.8463,-77.1179
1489428062.5553669930,1489428062.5577719212, -1.1426,  0.0564, -0.0647,  2.2125, -1.8463,-77.1179
1489428062.5578460693,1489428062.5602469444, -1.1426,  0.0564, -0.0647,  2.2125, -1.8463,-77.1179
1489428062.5603210926,1489428062.5627191067, -1.1426,  0.0564, -0.0647,  2.2125, -1.8463,-71.4417
1489428062.5627920628,1489428062.5651841164, -1.1426,  0.0564, -0.0647,  2.2125, -2.8839,-71.4417
1489428062.5652570724,1489428062.5676479340, -1.1426,  0.0564, -0.0647,  2.2125, -2.8839,-71.4417
1489428062.5677220821,1489428062.5701138973, -1.1426,  0.0645, -0.0510,  2.2125, -2.8839,-71.4417
1489428062.5701880455,1489428062.5725939274, -1.1150,  0.0645, -0.0510,  2.2125, -2.8839,-71.4417
1489428062.5726690292,1489428062.5750589371, -1.1150,  0.0645, -0.0510,  1.1292, -3.9368,-66.8640
1489428062.5751340389,1489428062.5775289536, -1.1150,  0.0645, -0.0510,  1.1292, -3.9368,-66.8640
1489428062.5776031017,1489428062.5799920559, -1.1150,  0.0645, -0.0510,  1.1292, -3.9368,-66.8640
1489428062.5800669193,1489428062.5824680328, -1.1150,  0.0645, -0.0510,  1.1292, -3.9368,-66.8640
1489428062.5825419426,1489428062.5849308968, -1.1150,  0.0645, -0.0510, -3.2806, -3.8910,-62.1033
1489428062.5850050449,1489428062.5873970985, -1.1150,  0.0645, -0.0510, -3.2806, -3.8910,-62.1033
1489428062.5874719620,1489428062.5898630619, -1.1150,  0.0020,  0.0029, -3.2806, -3.8910,-62.1033
1489428062.5899379253,1489428062.5922780037, -1.1274,  0.0535,  0.0029, -3.2806, -3.8910,-62.1033
1489428062.5923519135,1489428062.5946340561, -1.1274,  0.0535,  0.0029, -7.1869, -1.6022,-57.5104
1489428062.5947079659,1489428062.5971119404, -1.1274,  0.0535,  0.0029, -6.3629, -1.6022,-57.5104
1489428062.5971949100,1489428062.5994939804, -1.1274,  0.0535,  0.0029, -6.3629, -1.6022,-57.5104
1489428062.5995690823,1489428062.6019530296, -1.1274,  0.0535,  0.0029, -6.3629, -1.6022,-57.5104
1489428062.6020278931,1489428062.6044330597, -1.1274,  0.0535,  0.0029, -6.3629, -1.6022,-57.5104
1489428062.6045069695,1489428062.6069149971, -1.1274,  0.0535,  0.0029, -8.5907,  1.3885,-55.6488
1489428062.6069910526,1489428062.6093959808, -1.1274,  0.0535, -0.0596, -8.5907,  1.3885,-55.6488
1489428062.6094689369,1489428062.6118779182, -1.1541,  0.0117, -0.0093, -8.5907,  1.3885,-55.6488
1489428062.6119530201,1489428062.6143569946, -1.1541,  0.0117, -0.0093, -8.5907,  1.3885,-55.6488
1489428062.6144320965,1489428062.6168360710, -1.1541,  0.0117, -0.0093, -7.6141,  4.0436,-53.4821
1489428062.6169109344,1489428062.6193149090, -1.1541,  0.0117, -0.0093, -7.6141,  4.0436,-53.4821
1489428062.6193900108,1489428062.6217989922, -1.1541,  0.0117, -0.0093, -7.6141,  4.0436,-53.4821
1489428062.6218750477,1489428062.6242771149, -1.1541,  0.0117, -0.0093, -7.6141,  4.0436,-53.4821
1489428062.6244568825,1489428062.6268610954, -1.1541,  0.0117, -0.0093, -6.6223,  6.2103,-50.3540
1489428062.6269350052,1489428062.6293349266, -1.1541,  0.0117, -0.0093, -6.6223,  6.2103,-50.3540
1489428062.6294090748,1489428062.6318271160, -1.1465, -0.0117, -0.0505, -6.6223,  6.2103,-50.3540
1489428062.6319000721,1489428062.6343050003, -1.1465, -0.0117, -0.0505, -6.6223,  6.2103,-50.3540
1489428062.6343779564,1489428062.6367819309, -1.1465, -0.0117, -0.0505, -6.6223,  6.2103,-47.0734
1489428062.6368548870,1489428062.6392600536, -1.1465, -0.0117, -0.0505, -5.3711,  7.3700,-47.0734
1489428062.6393349171,1489428062.6417129040, -1.1465, -0.0117, -0.0505, -5.3711,  7.3700,-47.0734
1489428062.6417870522,1489428062.6440730095, -1.1465, -0.0117, -0.0505, -5.3711,  7.3700,-47.0734
1489428062.6441459656,1489428062.6464190483, -1.1465, -0.0117, -0.0505, -5.3711,  7.3700,-47.0734
1489428062.6464939117,1489428062.6487739086, -1.1465, -0.0117, -0.0505, -2.7313,  8.5602,-42.2821
1489428062.6488480568,1489428062.6511840820, -1.1321, -0.0142, -0.0623, -2.7313,  8.5602,-42.2821
1489428062.6512579918,1489428062.6536579132, -1.1321, -0.0142, -0.0623, -2.7313,  8.5602,-42.2821
1489428062.6537311077,1489428062.6561310291, -1.1321, -0.0142, -0.0623, -2.7313,  8.5602,-42.2821
1489428062.6562058926,1489428062.6586060524, -1.1321, -0.0142, -0.0623, -0.3967,  9.2010,-37.9333
1489428062.6586821079,1489428062.6610810757, -1.1321, -0.0142, -0.0623, -0.3967,  9.2010,-37.9333
1489428062.6611568928,1489428062.6635611057, -1.1321, -0.0142, -0.0623, -0.3967,  9.2010,-37.9333
1489428062.6636369228,1489428062.6660370827, -1.1321, -0.0142, -0.0623, -0.3967,  9.2010,-37.9333
1489428062.6661119461,1489428062.6685209274, -1.1321, -0.0142, -0.0623, -0.3967,  9.5367,-34.6985
1489428062.6685960293,1489428062.6710081100, -1.1453, -0.0110, -0.0901,  1.1902,  9.5367,-34.6985
1489428062.6710829735,1489428062.6734879017, -1.1453, -0.0110, -0.0901,  1.1902,  9.5367,-34.6985
1489428062.6735639572,1489428062.6759650707, -1.1453, -0.0110, -0.0901,  1.1902,  9.5367,-34.6985
1489428062.6760380268,1489428062.6784470081, -1.1453, -0.0110, -0.0901,  1.1902,  9.5367,-34.6985
1489428062.6785209179,1489428062.6809360981, -1.1453, -0.0110, -0.0901,  2.4109,  9.0942,-31.9519
1489428062.6810109615,1489428062.6834180355, -1.1453, -0.0110, -0.0901,  2.4109,  9.0942,-31.9519
1489428062.6834928989,1489428062.6858999729, -1.1453, -0.0110, -0.0901,  2.4109,  9.0942,-31.9519
1489428062.6859750748,1489428062.6883780956, -1.1453, -0.0110, -0.0901,  2.4109,  9.0942,-31.9519
1489428062.6884529591,1489428062.6908578873, -1.1445,  0.0037, -0.0930,  3.9215,  8.2703,-30.3955
1489428062.6909859180,1489428062.6932680607, -1.1445,  0.0037, -0.0930,  3.9215,  8.2703,-30.3955
1489428062.6933429241,1489428062.6956229210, -1.1445,  0.0037, -0.0930,  3.9215,  8.2703,-30.3955
1489428062.6956970692,1489428062.6979820728, -1.1445,  0.0037, -0.0930,  3.9215,  8.2703,-30.3955
1489428062.6980569363,1489428062.7003350258, -1.1445,  0.0037, -0.0930,  0.0153,  7.8888,-29.4189
1489428062.7004098892,1489428062.7028470039, -1.1445,  0.0037, -0.0930,  3.4027,  7.8888,-29.4189
1489428062.7029209137,1489428062.7051959038, -1.1445,  0.0037, -0.0930,  3.4027,  7.8888,-29.4189
1489428062.7052700520,1489428062.7075490952, -1.1445,  0.0037, -0.0930,  3.4027,  7.8888,-29.4189
1489428062.7076230049,1489428062.7099039555, -1.1445,  0.0037, -0.0955,  3.4027,  7.8888,-29.4189
1489428062.7099781036,1489428062.7123889923, -1.1521,  0.0166, -0.0955,  1.9531,  8.3008,-28.3203
1489428062.7124640942,1489428062.7148649693, -1.1521,  0.0166, -0.0955,  1.9531,  8.3008,-28.3203
1489428062.7149400711,1489428062.7173449993, -1.1521,  0.0166, -0.0955,  1.9531,  8.3008,-28.3203
1489428062.7174189091,1489428062.7198228836, -1.1521,  0.0166, -0.0955,  1.9531,  8.3008,-28.3203
1489428062.7198979855,1489428062.7223429680, -1.1521,  0.0166, -0.0955,  1.2665,  7.8278,-28.3966
1489428062.7224159241,1489428062.7248160839, -1.1521,  0.0166, -0.0955,  1.2665,  7.8278,-28.3966
1489428062.7248899937,1489428062.7272899151, -1.1521,  0.0166, -0.0955,  1.2665,  7.8278,-28.3966
1489428062.7274730206,1489428062.7298789024, -1.1521,  0.0166, -0.0901,  1.2665,  7.8278,-28.3966
1489428062.7299530506,1489428062.7323629856, -1.1479,  0.0034, -0.0901,  0.5341,  7.3395,-28.3203
1489428062.7324390411,1489428062.7348389626, -1.1479,  0.0034, -0.0901,  0.5341,  7.3395,-28.3203
1489428062.7349140644,1489428062.7373120785, -1.1479,  0.0034, -0.0901,  0.5341,  7.3395,-28.3203
1489428062.7373869419,1489428062.7397871017, -1.1479,  0.0034, -0.0901,  0.5341,  7.3395,-28.3203
1489428062.7398641109,1489428062.7422699928, -1.1479,  0.0034, -0.0901,  0.5341,  7.3395,-27.8015
1489428062.7423450947,1489428062.7447450161, -1.1479,  0.0034, -0.0901,  0.1221,  7.3547,-27.8015
1489428062.7448210716,1489428062.7472269535, -1.1479,  0.0034, -0.0901,  0.1221,  7.3547,-27.8015
1489428062.7473030090,1489428062.7497069836, -1.1479,  0.0034, -0.0901,  0.1221,  7.3547,-27.8015
1489428062.7497820854,1489428062.7521419525, -1.1519, -0.0215, -0.0818,  0.1221,  7.3547,-27.8015
1489428062.7522180080,1489428062.7544949055, -1.1519, -0.0215, -0.0818,  0.5493,  7.1259,-26.9623
1489428062.7545700073,1489428062.7568540573, -1.1519, -0.0215, -0.0818,  0.5493,  7.1259,-26.9623
1489428062.7569279671,1489428062.7592129707, -1.1519, -0.0215, -0.0818,  0.5493,  7.1259,-26.9623
1489428062.7592871189,1489428062.7616119385, -1.1519, -0.0215, -0.0818,  0.5493,  7.1259,-26.9623
1489428062.7616870403,1489428062.7640891075, -1.1519, -0.0215, -0.0818,  0.7324,  6.4697,-25.8026
1489428062.7641630173,1489428062.7665650845, -1.1519, -0.0215, -0.0818,  0.7324,  6.4697,-25.8026
1489428062.7666399479,1489428062.7690420151, -1.1519, -0.0215, -0.0818,  0.7324,  6.4697,-25.8026
1489428062.7691171169,1489428062.7715590000, -1.1421, -0.0168, -0.1199,  0.7324,  6.4697,-25.8026
1489428062.7716350555,1489428062.7740380764, -1.1421, -0.0168, -0.1199,  0.7324,  6.4697,-24.2920
1489428062.7741129398,1489428062.7765159607, -1.1421, -0.0168, -0.1199,  0.9460,  5.8289,-24.2920
1489428062.7765920162,1489428062.7789959908, -1.1421, -0.0168, -0.1199,  0.9460,  5.8289,-24.2920
1489428062.7790710926,1489428062.7814838886, -1.1421, -0.0168, -0.1199,  0.9460,  5.8289,-24.2920
1489428062.7815589905,1489428062.7839689255, -1.1421, -0.0168, -0.1199,  0.9460,  5.8289,-24.2920
1489428062.7840449810,1489428062.7864520550, -1.1421, -0.0168, -0.1199,  0.0000,  4.6844,-23.1018
1489428062.7865269184,1489428062.7889330387, -1.1421, -0.0168, -0.1199,  0.0000,  4.6844,-23.1018
1489428062.7890079021,1489428062.7914650440, -1.1384, -0.0376, -0.1323,  0.0000,  4.6844,-23.1018
1489428062.7915389538,1489428062.7939391136, -1.1384, -0.0376, -0.1323,  0.0000,  4.6844,-23.1018
1489428062.7940120697,1489428062.7964189053, -1.1384, -0.0376, -0.1323,  0.1221,  4.0588,-22.4152
1489428062.7964949608,1489428062.7988979816, -1.1384, -0.0376, -0.1323,  0.1221,  4.0588,-22.4152
1489428062.7989730835,1489428062.8013710976, -1.1384, -0.0376, -0.1323,  0.1221,  4.0588,-22.4152
1489428062.8014469147,1489428062.8037309647, -1.1384, -0.0376, -0.1323,  0.1221,  4.0588,-22.4152
1489428062.8038060665,1489428062.8060870171, -1.1384, -0.0376, -0.1323,  0.1221,  3.6469,-21.9727
1489428062.8061621189,1489428062.8084459305, -1.1384, -0.0376, -0.1323,  0.4272,  3.6469,-21.9727
1489428062.8085210323,1489428062.8107960224, -1.1428, -0.0447, -0.1257,  0.4272,  3.6469,-21.9727
1489428062.8108708858,1489428062.8131508827, -1.1428, -0.0447, -0.1257,  0.4272,  3.6469,-21.9727
1489428062.8132250309,1489428062.8155000210, -1.1428, -0.0447, -0.1257,  0.4272,  3.6469,-21.9727
1489428062.8155760765,1489428062.8178539276, -1.1428, -0.0447, -0.1257,  0.1068,  2.9144,-21.8658
1489428062.8179290295,1489428062.8202080727, -1.1428, -0.0447, -0.1257,  0.1068,  2.9144,-21.8658
1489428062.8202829361,1489428062.8226768970, -1.1428, -0.0447, -0.1257,  0.1068,  2.9144,-21.8658
1489428062.8227519989,1489428062.8251509666, -1.1428, -0.0447, -0.1257,  0.1068,  2.9144,-21.8658
1489428062.8252260685,1489428062.8276300430, -1.1428, -0.0447, -0.1257,  1.1139,  2.2583,-22.3694
1489428062.8277049065,1489428062.8301079273, -1.1428, -0.0447, -0.1306,  1.1139,  2.2583,-22.3694
1489428062.8302950859,1489428062.8327450752, -1.1580, -0.0298, -0.1306,  1.1139,  2.2583,-22.3694
1489428062.8328189850,1489428062.8352260590, -1.1580, -0.0298, -0.1306,  1.1139,  2.2583,-22.3694
1489428062.8353009224,1489428062.8377079964, -1.1580, -0.0298, -0.1306,  1.1139,  1.2817,-23.3917
1489428062.8377830982,1489428062.8401861191, -1.1580, -0.0298, -0.1306,  2.6398,  1.2817,-23.3917
1489428062.8402600288,1489428062.8426671028, -1.1580, -0.0298, -0.1306,  2.6398,  1.2817,-23.3917
1489428062.8427410126,1489428062.8451449871, -1.1580, -0.0298, -0.1306,  2.6398,  1.2817,-23.3917
1489428062.8452188969,1489428062.8476240635, -1.1580, -0.0298, -0.1306,  2.6398,  1.2817,-27.2980
1489428062.8476979733,1489428062.8501009941, -1.1580, -0.0298, -0.0908,  4.1199,  0.8545,-24.4751
1489428062.8501780033,1489428062.8525910378, -1.1533, -0.0378, -0.0908,  4.1199,  0.8545,-24.4751
1489428062.8526659012,1489428062.8550679684, -1.1533, -0.0378, -0.0908,  4.1199,  0.8545,-24.4751
1489428062.8551430702,1489428062.8575429916, -1.1533, -0.0378, -0.0908,  4.1199,  0.8545,-24.4751
1489428062.8576169014,1489428062.8600220680, -1.1533, -0.0378, -0.0908,  4.3793,  0.7935,-25.5890
1489428062.8600969315,1489428062.8624620438, -1.1533, -0.0378, -0.0908,  4.3793,  0.7935,-25.5890
1489428062.8625369072,1489428062.8648190498, -1.1533, -0.0378, -0.0908,  4.3793,  0.7935,-25.5890
1489428062.8648920059,1489428062.8671700954, -1.1533, -0.0378, -0.0908,  4.3793,  0.7935,-25.5890
1489428062.8672440052,1489428062.8695249557, -1.1533, -0.0378, -0.0908,  4.3793,  0.4730,-25.9094
1489428062.8695991039,1489428062.8719680309, -1.1353, -0.0549, -0.0925,  4.1046,  0.4730,-25.9094
1489428062.8720428944,1489428062.8744490147, -1.1353, -0.0549, -0.0925,  4.1046,  0.4730,-25.9094
1489428062.8745229244,1489428062.8769249916, -1.1353, -0.0549, -0.0925,  4.1046,  0.4730,-25.9094
1489428062.8770000935,1489428062.8794031143, -1.1353, -0.0549, -0.0925,  4.1046,  0.4730,-26.6724
1489428062.8794770241,1489428062.8818840981, -1.1353, -0.0549, -0.0925,  4.0436,  0.6256,-26.6724
1489428062.8819580078,1489428062.8843629360, -1.1353, -0.0549, -0.0925,  4.0436,  0.6256,-26.6724
1489428062.8844380379,1489428062.8868401051, -1.1353, -0.0549, -0.0925,  4.0436,  0.6256,-26.6724
1489428062.8869149685,1489428062.8893160820, -1.1353, -0.0549, -0.0925,  4.0436,  0.6256,-26.6724
1489428062.8893909454,1489428062.8918080330, -1.1252, -0.0818, -0.0955,  4.2419, -0.2899,-26.8097
1489428062.8918828964,1489428062.8942821026, -1.1252, -0.0818, -0.0955,  4.2419, -0.2899,-26.8097
1489428062.8943579197,1489428062.8967521191, -1.1252, -0.0818, -0.0955,  4.2419, -0.2899,-26.8097
1489428062.8968260288,1489428062.8992280960, -1.1252, -0.0818, -0.0955,  4.2419, -0.2899,-26.8097
1489428062.8993029594,1489428062.9017479420, -1.1252, -0.0818, -0.0955,  5.0812, -0.4578,-26.8860
1489428062.9018230438,1489428062.9042239189, -1.1252, -0.0818, -0.0955,  5.0812, -0.4578,-26.8860
1489428062.9042980671,1489428062.9066989422, -1.1252, -0.0818, -0.0955,  5.0812, -0.4578,-26.8860
1489428062.9067740440,1489428062.9091770649, -1.1252, -0.0818, -0.0955,  5.0812, -0.4578,-26.8860
1489428062.9092509747,1489428062.9116449356, -1.1362, -0.0657, -0.0813,  5.0812, -0.6866,-27.7863
1489428062.9117200375,1489428062.9140069485, -1.1362, -0.0657, -0.0813,  6.5613, -0.6866,-27.7863
1489428062.9140810966,1489428062.9163661003, -1.1362, -0.0657, -0.0813,  6.5613, -0.6866,-27.7863
1489428062.9164400101,1489428062.9187231064, -1.1362, -0.0657, -0.0813,  6.5613, -0.6866,-27.7863
1489428062.9187979698,1489428062.9210801125, -1.1362, -0.0657, -0.0813,  6.5613, -0.6866,-27.7863
1489428062.9211549759,1489428062.9234321117, -1.1362, -0.0657, -0.0813,  4.7607, -0.9918,-29.9530
1489428062.9235060215,1489428062.9257850647, -1.1362, -0.0657, -0.0813,  4.7607, -0.9918,-29.9530
1489428062.9258589745,1489428062.9281361103, -1.1362, -0.0657, -0.0813,  4.7607, -0.9918,-29.9530
1489428062.9282100201,1489428062.9304869175, -1.1362, -0.0659, -0.1182,  4.7607, -0.9918,-29.9530
1489428062.9305620193,1489428062.9330410957, -1.1348, -0.0659, -0.1182,  0.8545, -1.8921,-32.1503
1489428062.9332239628,1489428062.9356288910, -1.1348, -0.0659, -0.1182,  2.4109, -1.8921,-32.1503
1489428062.9357039928,1489428062.9381070137, -1.1348, -0.0659, -0.1182,  2.4109, -1.8921,-32.1503
1489428062.9381809235,1489428062.9405879974, -1.1348, -0.0659, -0.1182,  2.4109, -1.8921,-32.1503
1489428062.9406609535,1489428062.9430799484, -1.1348, -0.0659, -0.1182,  2.4109, -1.8921,-33.2947
1489428062.9431550503,1489428062.9455618858, -1.1348, -0.0659, -0.1182,  1.7700, -1.9836,-33.2947
1489428062.9456360340,1489428062.9480390549, -1.1348, -0.0659, -0.1182,  1.7700, -1.9836,-33.2947
1489428062.9481129646,1489428062.9505128860, -1.1348, -0.0950, -0.1189,  1.7700, -1.9836,-33.2947
1489428062.9505879879,1489428062.9530029297, -1.1582, -0.0950, -0.1189,  1.7700, -1.9836,-33.2947
1489428062.9530789852,1489428062.9554760456, -1.1582, -0.0950, -0.1189,  2.3651, -2.8534,-35.1257
1489428062.9555509090,1489428062.9579539299, -1.1582, -0.0950, -0.1189,  2.3651, -2.8534,-35.1257
1489428062.9580299854,1489428062.9604289532, -1.1582, -0.0950, -0.1189,  2.3651, -2.8534,-35.1257
1489428062.9605031013,1489428062.9628450871, -1.1582, -0.0950, -0.1189,  2.3651, -2.8534,-35.1257
1489428062.9629189968,1489428062.9652049541, -1.1582, -0.0950, -0.1189,  3.3875, -3.7689,-36.6516
1489428062.9652791023,1489428062.9675600529, -1.1582, -0.0950, -0.1189,  3.3875, -3.7689,-36.6516
1489428062.9676349163,1489428062.9699180126, -1.1582, -0.0950, -0.0686,  3.3875, -3.7689,-36.6516
1489428062.9699909687,1489428062.9723920822, -1.1560, -0.1277, -0.0686,  3.3875, -3.7689,-36.6516
1489428062.9724650383,1489428062.9748671055, -1.1560, -0.1277, -0.0686,  3.3875, -7.6752,-38.3759
1489428062.9749410152,1489428062.9773468971, -1.1560, -0.1277, -0.0686,  4.8828, -4.2114,-38.3759
1489428062.9774210453,1489428062.9798200130, -1.1560, -0.1277, -0.0686,  4.8828, -4.2114,-38.3759
1489428062.9798929691,1489428062.9823350906, -1.1560, -0.1277, -0.0686,  4.8828, -4.2114,-38.3759
1489428062.9824090004,1489428062.9848101139, -1.1560, -0.1277, -0.0686,  4.8828, -4.2114,-38.3759
1489428062.9848830700,1489428062.9872870445, -1.1560, -0.1277, -0.0686,  6.9122, -4.7913,-40.2527
1489428062.9873600006,1489428062.9897649288, -1.1560, -0.1277, -0.0686,  6.9122, -4.7913,-40.2527
1489428062.9898390770,1489428062.9922499657, -1.1370, -0.1001, -0.1252,  6.9122, -4.7913,-40.2527
1489428062.9923250675,1489428062.9947290421, -1.1370, -0.1001, -0.1252,  6.9122, -4.7913,-40.2527
1489428062.9948039055,1489428062.9972059727, -1.1370, -0.1001, -0.1252,  6.2561, -5.7220,-41.2445
1489428062.9972798824,1489428062.9996819496, -1.1370, -0.1001, -0.1252,  6.2561, -5.7220,-41.2445
1489428062.9997549057,1489428063.0021638870, -1.1370, -0.1001, -0.1252,  6.2561, -5.7220,-41.2445
1489428063.0022380352,1489428063.0046439171, -1.1370, -0.1001, -0.1252,  6.2561, -5.7220,-41.2445
1489428063.0047180653,1489428063.0071229935, -1.1370, -0.1001, -0.1252,  6.6223, -5.6915,-41.1072
1489428063.0071980953,1489428063.0095980167, -1.1370, -0.1001, -0.1252,  6.6223, -5.6915,-41.1072
1489428063.0096700191,1489428063.0120220184, -1.1382, -0.2007, -0.0986,  6.6223, -5.6915,-41.1072
1489428063.0120959282,1489428063.0143830776, -1.1382, -0.2007, -0.0986,  6.6223, -5.6915,-41.1072
1489428063.0144560337,1489428063.0167329311, -1.1382, -0.2007, -0.0986,  6.6223, -5.6915,-41.1072
1489428063.0168049335,1489428063.0190880299, -1.1382, -0.2007, -0.0986,  8.5449, -5.2948,-42.5720
1489428063.0191619396,1489428063.0214800835, -1.1382, -0.2007, -0.0986,  8.5449, -5.2948,-42.5720
1489428063.0215539932,1489428063.0239589214, -1.1382, -0.2007, -0.0986,  8.5449, -5.2948,-42.5720
1489428063.0240330696,1489428063.0264379978, -1.1382, -0.2007, -0.0986,  8.5449, -5.2948,-42.5720
1489428063.0265130997,1489428063.0289189816, -1.1382, -0.2007, -0.0986, 10.4370, -5.9662,-41.8701
1489428063.0289969444,1489428063.0314109325, -1.1704, -0.1641, -0.0945, 10.4370, -5.9662,-41.8701
1489428063.0314879417,1489428063.0338931084, -1.1704, -0.1641, -0.0945, 10.4370, -5.9662,-41.8701
1489428063.0339710712,1489428063.0363759995, -1.1704, -0.1641, -0.0945, 10.4370, -5.9662,-41.8701
1489428063.0365600586,1489428063.0389659405, -1.1704, -0.1641, -0.0945, 10.2081, -6.2866,-42.4805
1489428063.0390429497,1489428063.0414590836, -1.1704, -0.1641, -0.0945, 10.2081, -6.2866,-42.4805
1489428063.0415370464,1489428063.0439438820, -1.1704, -0.1641, -0.0945, 10.2081, -6.2866,-42.4805
1489428063.0440208912,1489428063.0464260578, -1.1704, -0.1641, -0.0945, 10.2081, -6.2866,-42.4805
1489428063.0465040207,1489428063.0489110947, -1.1704, -0.1641, -0.0945, 10.2081, -6.2866,-44.0521
1489428063.0489881039,1489428063.0514121056, -1.1733, -0.1333, -0.0630, 11.4441, -6.1493,-44.0521
1489428063.0514891148,1489428063.0539000034, -1.1733, -0.1333, -0.0630, 11.4441, -6.1493,-44.0521
1489428063.0539770126,1489428063.0563929081, -1.1733, -0.1333, -0.0630, 11.4441, -6.1493,-44.0521
1489428063.0564711094,1489428063.0588829517, -1.1733, -0.1333, -0.0630, 11.4441, -6.1493,-44.0521
1489428063.0589609146,1489428063.0613648891, -1.1733, -0.1333, -0.0630, 10.5438, -6.5613,-44.4641
1489428063.0614409447,1489428063.0637280941, -1.1733, -0.1333, -0.0630, 10.5438, -6.5613,-44.4641
1489428063.0638051033,1489428063.0660851002, -1.1733, -0.1333, -0.0630, 10.5438, -6.5613,-44.4641
1489428063.0661609173,1489428063.0684430599, -1.1733, -0.1333, -0.0630, 10.5438, -6.5613,-44.4641
1489428063.0685191154,1489428063.0708010197, -1.2358, -0.1614, -0.0688,  9.7198, -7.6447,-46.1731
1489428063.0708749294,1489428063.0731549263, -1.2249, -0.1614, -0.0688,  9.7198, -7.6447,-46.1731
1489428063.0732300282,1489428063.0755050182, -1.2249, -0.1614, -0.0688,  9.7198, -7.6447,-46.1731
1489428063.0755789280,1489428063.0778560638, -1.2249, -0.1614, -0.0688,  9.7198, -7.6447,-46.1731
1489428063.0779299736,1489428063.0802109241, -1.2249, -0.1614, -0.0688,  9.7198, -7.6447,-48.6450
1489428063.0802850723,1489428063.0826549530, -1.2249, -0.1614, -0.0688,  9.6436, -9.0637,-48.6450
1489428063.0827310085,1489428063.0851130486, -1.2249, -0.1614, -0.0688,  9.6436, -9.0637,-48.6450
1489428063.0851891041,1489428063.0875730515, -1.2249, -0.1614, -0.0688,  9.6436, -9.0637,-48.6450
1489428063.0876479149,1489428063.0900380611, -1.2249, -0.1614, -0.0688,  9.6436, -9.0637,-48.6450
1489428063.0901129246,1489428063.0925381184, -1.2666, -0.1587, -0.1150, 10.8795,-11.5356,-50.8575
1489428063.0926179886,1489428063.0950000286, -1.2666, -0.1587, -0.1150, 10.8795,-11.5356,-50.8575
1489428063.0950789452,1489428063.0974669456, -1.2666, -0.1587, -0.1150, 10.8795,-11.5356,-50.8575
1489428063.0975461006,1489428063.0999369621, -1.2666, -0.1587, -0.1150, 10.8795,-11.5356,-50.8575
1489428063.1000161171,1489428063.1026780605, -1.2666, -0.1587, -0.1150, 10.2234,-13.8702,-54.6112
1489428063.1027588844,1489428063.1051430702, -1.2666, -0.1587, -0.1150, 10.2234,-13.8702,-54.6112
1489428063.1052219868,1489428063.1076049805, -1.2666, -0.1587, -0.1150, 10.2234,-13.8702,-54.6112
1489428063.1076850891,1489428063.1100730896, -1.2666, -0.1587, -0.1150, 10.2234,-13.8702,-54.6112
1489428063.1101529598,1489428063.1125390530, -1.2568, -0.0996, -0.1135, 10.2234,-16.2811,-57.5562
1489428063.1126189232,1489428063.1149830818, -1.2568, -0.0996, -0.1135,  8.8043,-16.2811,-57.5562
1489428063.1150610447,1489428063.1174309254, -1.2568, -0.0996, -0.1135,  8.8043,-16.2811,-57.5562
1489428063.1175079346,1489428063.1198749542, -1.2568, -0.0996, -0.1135,  8.8043,-16.2811,-57.5562
1489428063.1199519634,1489428063.1223011017, -1.2568, -0.0996, -0.1135,  8.8043,-16.2811,-61.4624
1489428063.1223781109,1489428063.1246619225, -1.2568, -0.0996, -0.1135, 10.1776,-19.3481,-58.8989
1489428063.1247420311,1489428063.1270198822, -1.2568, -0.0996, -0.1135, 10.1776,-19.3481,-58.8989
1489428063.1270990372,1489428063.1293849945, -1.2568, -0.0996, -0.1135, 10.1776,-19.3481,-58.8989
1489428063.1294639111,1489428063.1318650246, -1.3604, -0.1875, -0.0720, 10.1776,-19.3481,-58.8989
1489428063.1319448948,1489428063.1343460083, -1.3604, -0.1875, -0.0720, 13.1226,-23.3154,-62.7747
1489428063.1344249249,1489428063.1368141174, -1.3604, -0.1875, -0.0720, 13.1226,-23.3154,-62.7747
1489428063.1578650475,1489428063.1604399681, -1.3689, -0.1924, -0.0100, 21.5759,-27.1301,-73.8373
1489428063.1605229378,1489428063.1629650593, -1.3689, -0.1924, -0.0100, 21.5759,-27.1301,-73.8373
1489428063.1630449295,1489428063.1654539108, -1.3689, -0.1924, -0.0100, 21.5759,-28.9307,-79.3762
1489428063.1655321121,1489428063.1680450439, -1.3689, -0.1924, -0.0100, 23.3459,-28.9307,-79.3762
1489428063.1681380272,1489428063.1705470085, -1.3689, -0.1299,  0.0713, 23.3459,-28.9307,-79.3762
1489428063.1706271172,1489428063.1730709076, -1.4453, -0.1470,  0.0713, 23.3459,-28.9307,-79.3762
1489428063.1731529236,1489428063.1755700111, -1.4453, -0.1470,  0.0713, 23.3459,-28.9307,-84.7626
1489428063.1756489277,1489428063.1780529022, -1.4453, -0.1470,  0.0713, 26.0162,-31.8298,-84.7626
1489428063.1781320572,1489428063.1805460453, -1.4453, -0.1470,  0.0713, 26.0162,-31.8298,-84.7626
1489428063.1806249619,1489428063.1830480099, -1.4453, -0.1470,  0.0713, 26.0162,-31.8298,-84.7626
1489428063.1831281185,1489428063.1855330467, -1.4453, -0.1470,  0.0713, 26.0162,-31.8298,-84.7626
1489428063.1856129169,1489428063.1880230904, -1.4453, -0.1470,  0.0713, 27.3590,-36.3770,-89.7675
1489428063.1881029606,1489428063.1905069351, -1.4453, -0.1470,  0.0681, 27.3590,-36.3770,-89.7675
1489428063.1905870438,1489428063.1929039955, -1.5989, -0.0679,  0.0681, 27.3590,-36.3770,-89.7675
1489428063.1929829121,1489428063.1952679157, -1.5989, -0.0679,  0.0681, 27.3590,-36.3770,-89.7675
1489428063.1953470707,1489428063.1976270676, -1.5989, -0.0679,  0.0681, 26.8402,-39.7186,-95.4132
1489428063.1977050304,1489428063.1999878883, -1.5989, -0.0679,  0.0681, 26.8402,-39.7186,-95.4132
1489428063.2000660896,1489428063.2024610043, -1.5989, -0.0679,  0.0681, 26.8402,-39.7186,-95.4132
1489428063.2025411129,1489428063.2048199177, -1.5989, -0.0679,  0.0681, 26.8402,-39.7186,-95.4132
1489428063.2048990726,1489428063.2071859837, -1.5989, -0.0679,  0.0681, 26.8402,-39.7186,-101.3489
1489428063.2072639465,1489428063.2095448971, -1.5989, -0.0679,  0.0681, 30.3802,-42.2211,-101.3489
1489428063.2096250057,1489428063.2119479179, -1.6260, -0.0088,  0.1006, 30.3802,-42.2211,-101.3489
1489428063.2120299339,1489428063.2143170834, -1.6260, -0.0088,  0.1006, 30.3802,-42.2211,-101.3489
1489428063.2143979073,1489428063.2166790962, -1.6260, -0.0088,  0.1006, 30.3802,-42.2211,-101.3489
1489428063.2167599201,1489428063.2190461159, -1.6260, -0.0088,  0.1006, 36.8805,-44.0369,-108.0475
1489428063.2191269398,1489428063.2216050625, -1.6260, -0.0088,  0.1006, 36.8805,-44.0369,-108.0475
1489428063.2216870785,1489428063.2239739895, -1.6260, -0.0088,  0.1006, 36.8805,-44.0369,-108.0475
1489428063.2240550518,1489428063.2263441086, -1.6260, -0.0088,  0.1006, 36.8805,-44.0369,-108.0475
1489428063.2264249325,1489428063.2287039757, -1.6260, -0.0088,  0.1006, 36.8805,-47.0886,-112.5793
1489428063.2287850380,1489428063.2311060429, -1.6260,  0.2078,  0.0005, 38.1317,-47.0886,-112.5793
1489428063.2311880589,1489428063.2335751057, -1.6858,  0.2078,  0.0005, 38.1317,-47.0886,-112.5793
1489428063.2336559296,1489428063.2360448837, -1.6858,  0.2078,  0.0005, 38.1317,-47.0886,-112.5793
1489428063.2361240387,1489428063.2385170460, -1.6858,  0.2078,  0.0005, 38.1317,-47.0886,-112.5793
1489428063.2385959625,1489428063.2410008907, -1.6858,  0.2078,  0.0005, 31.7993,-50.0946,-118.8965
1489428063.2410819530,1489428063.2434740067, -1.6858,  0.2078,  0.0005, 31.7993,-50.0946,-118.8965
1489428063.2435529232,1489428063.2459468842, -1.6858,  0.2078,  0.0005, 31.7993,-50.0946,-118.8965
1489428063.2460260391,1489428063.2484200001, -1.6858,  0.2078,  0.0005, 31.7993,-50.0946,-118.8965
1489428063.2485001087,1489428063.2508909702, -1.6858,  0.3596, -0.1765, 26.2756,-52.3682,-126.0834
1489428063.2510130405,1489428063.2534151077, -1.7256,  0.3596, -0.1765, 26.2756,-52.3682,-126.0834
1489428063.2534930706,1489428063.2558829784, -1.7256,  0.3596, -0.1765, 26.2756,-52.3682,-126.0834
1489428063.2559618950,1489428063.2583580017, -1.7256,  0.3596, -0.1765, 26.2756,-52.3682,-126.0834
1489428063.2584369183,1489428063.2608280182, -1.7256,  0.3596, -0.1765, 23.2239,-52.4445,-133.3618
1489428063.2610731125,1489428063.2634680271, -1.7256,  0.3596, -0.1765, 23.2239,-52.4445,-133.3618
1489428063.2635469437,1489428063.2659430504, -1.7256,  0.3596, -0.1765, 23.2239,-52.4445,-133.3618
1489428063.2660219669,1489428063.2684090137, -1.7256,  0.3596, -0.1765, 23.2239,-52.4445,-133.3618
1489428063.2684869766,1489428063.2708768845, -1.7256,  0.4377, -0.2268, 23.2239,-52.4445,-139.8315
1489428063.2710258961,1489428063.2749350071, -1.7935,  0.4377, -0.2268, 24.5972,-51.5900,-139.8315
1489428063.2750248909,1489428063.2773079872, -1.7935,  0.4377, -0.2268, 24.5972,-51.5900,-139.8315
1489428063.2773869038,1489428063.2796669006, -1.7935,  0.4377, -0.2268, 24.5972,-51.5900,-139.8315
1489428063.2797460556,1489428063.2821159363, -1.7935,  0.4377, -0.2268, 29.7241,-51.4984,-147.1252
1489428063.2821950912,1489428063.2844700813, -1.7935,  0.4377, -0.2268, 29.7241,-51.4984,-147.1252
1489428063.2845480442,1489428063.2868330479, -1.7935,  0.4377, -0.2268, 29.7241,-51.4984,-147.1252
1489428063.2869119644,1489428063.2891929150, -1.7935,  0.4377, -0.2268, 29.7241,-51.4984,-147.1252
